Packet number,Gyroscope X (deg/s),Gyroscope Y (deg/s),Gyroscope Z (deg/s),Accelerometer X (g),Accelerometer Y (g),Accelerometer Z (g),Magnetometer X (G),Magnetometer Y (G),Magnetometer Z (G)
113,-0.625,0.625,-2.625,-0.7089844,0.04833984,0.8027344,0.2695313,0.2993164,-0.4707031
116,-0.4375,-2,-0.5625,-0.6425781,-0.01367188,0.8066406,0.2749023,0.2993164,-0.4765625
119,0.25,-2.125,-0.6875,-0.7128906,0.001464844,0.7836914,0.2607422,0.3129883,-0.4794922
122,-0.1875,-2.25,-0.375,-0.6816406,0.01708984,0.8066406,0.2607422,0.3129883,-0.4794922
125,-0.1875,-1.6875,-0.3125,-0.7011719,0.02880859,0.7607422,0.2607422,0.3129883,-0.4794922
128,-0.5625,-2.625,-0.4375,-0.7011719,0.02490234,0.7875977,0.2636719,0.3046875,-0.4765625
131,-1.4375,-2.3125,-0.1875,-0.6894531,0.03271484,0.7797852,0.2636719,0.3046875,-0.4765625
134,-1.8125,-2.3125,-0.4375,-0.7050781,0.02490234,0.7719727,0.2553711,0.2963867,-0.4794922
137,-1.4375,-1.625,-1,-0.6972656,0.01708984,0.7719727,0.2553711,0.2963867,-0.4794922
140,-1.125,-1.1875,-2,-0.6972656,0.005371094,0.7758789,0.2636719,0.3017578,-0.4848633
143,-2.1875,-1.6875,-1.75,-0.6660156,0.01708984,0.7490234,0.2636719,0.3017578,-0.4848633
146,-2.1875,-2,-1.3125,-0.7050781,0.03271484,0.7758789,0.2666016,0.293457,-0.4824219
149,-2,-2.4375,-0.5,-0.6816406,0.02880859,0.7719727,0.2636719,0.2963867,-0.4794922
152,-1.25,-1.4375,0.3125,-0.6855469,0.001464844,0.7758789,0.2636719,0.2963867,-0.4794922
155,-0.5625,-1.125,1.375,-0.6972656,-0.001953125,0.7719727,0.2636719,0.2963867,-0.4794922
158,-0.0625,-1.125,2.0625,-0.6816406,0.005371094,0.7719727,0.2636719,0.2963867,-0.4794922
161,-0.375,-2.0625,2.125,-0.6777344,-0.009765625,0.7797852,0.2636719,0.3017578,-0.4765625
164,-0.8125,-3.5,2.4375,-0.6503906,0.03271484,0.7797852,0.2724609,0.3076172,-0.465332
167,-1.6875,-5.125,2.5625,-0.6933594,0.01708984,0.7758789,0.2724609,0.3076172,-0.465332
170,-1.5,-4.5625,2.125,-0.6777344,0.03662109,0.7988281,0.2636719,0.3046875,-0.4765625
173,-1.25,-3.6875,1,-0.6503906,0.02099609,0.8066406,0.2636719,0.3046875,-0.4765625
176,-1,-1.75,0.5625,-0.6542969,0.005371094,0.8027344,0.2636719,0.3017578,-0.4765625
179,-0.3125,-1.125,0.625,-0.6621094,0.02099609,0.7758789,0.2636719,0.3017578,-0.4765625
182,-0.5,-0.625,-0.0625,-0.6738281,0.03271484,0.7797852,0.2636719,0.3076172,-0.4824219
185,-1.0625,0.375,-0.1875,-0.6777344,0.02880859,0.7373047,0.2607422,0.2963867,-0.4707031
188,-0.4375,0.6875,-0.375,-0.6855469,0.01318359,0.7680664,0.2607422,0.2963867,-0.4707031
191,-0.875,1.125,0.0625,-0.6621094,0.02099609,0.7836914,0.2607422,0.3046875,-0.4765625
194,0,2.0625,0.625,-0.6738281,0.02490234,0.7568359,0.2607422,0.3046875,-0.4765625
197,0.8125,3.375,0.625,-0.6777344,0.02099609,0.8066406,0.2578125,0.2963867,-0.4794922
200,2.0625,4.9375,1.3125,-0.6972656,-0.001953125,0.7797852,0.2724609,0.3076172,-0.4794922
203,1.75,3.75,1.4375,-0.6816406,0.009277344,0.7836914,0.2724609,0.3076172,-0.4794922
206,1.375,2.8125,1.5,-0.6542969,0.02490234,0.7607422,0.2636719,0.2993164,-0.4765625
209,0.3125,1.5625,1.9375,-0.6816406,0.01708984,0.7719727,0.2636719,0.2993164,-0.4765625
212,-0.9375,-0.0625,2.0625,-0.6660156,0.01318359,0.7875977,0.2636719,0.2963867,-0.4794922
215,-2.125,-0.875,1.8125,-0.6894531,0.01318359,0.7451172,0.2636719,0.2963867,-0.4794922
218,-1.8125,-1.1875,1.375,-0.7167969,0.01708984,0.7607422,0.2636719,0.2963867,-0.4848633
221,-1,-1.3125,0.5,-0.6738281,0.04052734,0.7758789,0.2695313,0.3076172,-0.4765625
224,-0.75,-0.375,0.125,-0.7011719,0.02099609,0.7719727,0.2695313,0.3076172,-0.4765625
227,-0.9375,-0.25,0.125,-0.6894531,0.02099609,0.7719727,0.2666016,0.3017578,-0.4765625
230,-1.5625,-1,0.25,-0.6855469,0.005371094,0.7641602,0.2666016,0.3017578,-0.4765625
233,-1.125,-1.1875,0.3125,-0.6777344,0.009277344,0.7607422,0.2724609,0.2993164,-0.4794922
236,-0.875,-0.8125,0.6875,-0.6816406,0.02490234,0.7758789,0.2636719,0.3046875,-0.4765625
239,-1.5,-1,0.6875,-0.6738281,0.01708984,0.7529297,0.2636719,0.3046875,-0.4765625
242,-1.5625,-1,0.5625,-0.6855469,0.02099609,0.7719727,0.2636719,0.3017578,-0.4794922
245,-1.3125,-0.125,0.3125,-0.6894531,0.01318359,0.8105469,0.2636719,0.3017578,-0.4794922
248,-0.5,0.4375,-0.125,-0.6855469,0.01318359,0.7949219,0.2607422,0.2993164,-0.4907227
251,-0.3125,0.9375,-0.3125,-0.6621094,0.02099609,0.7875977,0.2578125,0.3046875,-0.4707031
254,-0.125,1.1875,0.0625,-0.6816406,0.02099609,0.7719727,0.2578125,0.3046875,-0.4707031
257,-0.5,0.5,-0.1875,-0.6816406,0.03662109,0.7949219,0.2666016,0.3046875,-0.4707031
260,-1.3125,-0.3125,-0.4375,-0.7089844,0.005371094,0.7797852,0.2666016,0.3046875,-0.4707031
263,-1.375,-0.875,0.0625,-0.6816406,0.01708984,0.7797852,0.2695313,0.3017578,-0.4736328
266,-0.6875,-0.6875,0,-0.7011719,0.009277344,0.7758789,0.2695313,0.3017578,-0.4736328
269,-0.6875,-0.6875,0,-0.6660156,0.01708984,0.7875977,0.2695313,0.3017578,-0.4765625
272,-1.0625,-0.0625,0.0625,-0.6933594,0.009277344,0.7412109,0.2695313,0.2993164,-0.4824219
275,-0.9375,-0.3125,0.5,-0.6621094,0.03662109,0.7680664,0.2695313,0.2993164,-0.4824219
278,-1.3125,-0.1875,0.3125,-0.6777344,0.03662109,0.7875977,0.2666016,0.2993164,-0.4736328
281,-1.4375,-0.9375,0.3125,-0.6582031,0.02099609,0.7719727,0.2666016,0.2993164,-0.4736328
284,-1.5,-1.375,0.625,-0.6855469,0.03271484,0.7719727,0.2636719,0.3017578,-0.4794922
287,-1.9375,-1.6875,1.0625,-0.6933594,0.03271484,0.7758789,0.2666016,0.3017578,-0.4794922
290,-1.75,-1.4375,0.5625,-0.6738281,0.02490234,0.7949219,0.2666016,0.3017578,-0.4794922
293,-1.625,-1,-0.125,-0.7011719,0.03271484,0.7680664,0.2636719,0.3017578,-0.4794922
296,-2,-0.6875,-0.25,-0.6425781,0.04833984,0.7915039,0.2636719,0.3017578,-0.4794922
299,-1.125,-0.4375,-0.8125,-0.6894531,0.04833984,0.7719727,0.2724609,0.3017578,-0.465332
302,-1.125,-0.3125,-1.4375,-0.6582031,0.005371094,0.7797852,0.2724609,0.3017578,-0.465332
305,-1.5625,-0.0625,-1.1875,-0.6542969,0.01708984,0.7607422,0.2636719,0.3017578,-0.487793
308,-1.9375,-0.0625,-1.125,-0.6816406,0.001464844,0.7915039,0.2666016,0.3017578,-0.4765625
311,-1.1875,-0.375,-0.625,-0.6816406,0.02490234,0.7797852,0.2666016,0.3017578,-0.4765625
314,-1.4375,-0.875,-1,-0.6542969,0.009277344,0.8027344,0.2666016,0.3017578,-0.4765625
317,-1.0625,0,-0.75,-0.6738281,0.03662109,0.7915039,0.2666016,0.3017578,-0.4765625
320,-0.75,0.625,-0.9375,-0.6777344,0.03662109,0.8027344,0.2636719,0.2963867,-0.4736328
323,-0.6875,1.625,-1.0625,-0.6855469,0.009277344,0.7680664,0.2666016,0.3017578,-0.4794922
326,-1.0625,1.3125,-1,-0.6738281,0.001464844,0.7568359,0.2666016,0.3017578,-0.4794922
329,-2.0625,0.5,-0.875,-0.6933594,0.02880859,0.7641602,0.2666016,0.3100586,-0.4824219
332,-2.1875,0.6875,0,-0.6777344,0.009277344,0.7680664,0.2666016,0.3100586,-0.4824219
335,-0.5625,2,1.625,-0.6542969,0.001464844,0.7607422,0.2749023,0.3017578,-0.4907227
338,-0.25,2.3125,2.5625,-0.6855469,0.01708984,0.7412109,0.2749023,0.3017578,-0.4907227
341,-0.125,2.1875,3.0625,-0.7050781,0.01708984,0.7529297,0.2636719,0.2993164,-0.4794922
344,-1,0.5625,2.375,-0.6738281,0.03662109,0.7641602,0.2636719,0.2993164,-0.4794922
347,-1.5625,0.0625,1.5625,-0.6738281,0.005371094,0.7915039,0.2636719,0.2993164,-0.4794922
350,-2.0625,-0.3125,0.5625,-0.6816406,0.03662109,0.7949219,0.2695313,0.3017578,-0.4736328
353,-2.4375,0.125,0.125,-0.6816406,0.005371094,0.7875977,0.2695313,0.3017578,-0.4736328
356,-1.6875,0.5625,0.0625,-0.6933594,0.01318359,0.7988281,0.2607422,0.3046875,-0.4765625
359,-1.25,1.6875,0,-0.6738281,0.01318359,0.7719727,0.2666016,0.2963867,-0.4765625
362,-0.6875,2.1875,-0.4375,-0.6855469,0.001464844,0.7836914,0.2666016,0.2963867,-0.4765625
365,-1.125,2.0625,-1.3125,-0.6816406,0.02490234,0.7680664,0.2666016,0.293457,-0.4765625
368,-1.6875,0.5625,-1.375,-0.6933594,0.01708984,0.7490234,0.2666016,0.293457,-0.4765625
371,-2.625,-0.6875,-0.4375,-0.6816406,0.009277344,0.7719727,0.2666016,0.2963867,-0.4794922
374,-2.875,-0.125,-1.3125,-0.6894531,0.03271484,0.7988281,0.2666016,0.2963867,-0.4794922
377,-2.625,0.1875,-1.25,-0.7011719,0.01318359,0.7836914,0.2666016,0.2963867,-0.4794922
380,-2.4375,0,-0.625,-0.6777344,0.01708984,0.7607422,0.2607422,0.3017578,-0.4824219
383,-2.5,0.25,0,-0.6738281,-0.009765625,0.7758789,0.2607422,0.3017578,-0.4824219
386,-1.1875,1.3125,0.375,-0.6816406,-0.02148438,0.7758789,0.2636719,0.3017578,-0.4765625
389,-0.375,1.25,0.5,-0.6933594,-0.01757813,0.7680664,0.2636719,0.3017578,-0.4765625
392,0.125,1.4375,1.25,-0.6738281,0.01318359,0.7758789,0.2666016,0.293457,-0.4848633
395,0.0625,1.8125,1.4375,-0.6582031,0.02099609,0.7373047,0.2578125,0.3046875,-0.4765625
398,-0.0625,2.125,2,-0.6816406,0.02490234,0.7412109,0.2578125,0.3046875,-0.4765625
401,0.1875,2.125,1.4375,-0.6699219,0.03271484,0.7915039,0.2607422,0.3046875,-0.4824219
404,-0.125,2,0.875,-0.6894531,0.02880859,0.7451172,0.2607422,0.3046875,-0.4824219
407,-0.8125,0.9375,0.5625,-0.6933594,-0.005859375,0.7875977,0.2607422,0.3046875,-0.4824219
410,-1.3125,-0.3125,0.125,-0.6660156,0.03271484,0.7758789,0.2666016,0.3017578,-0.487793
413,-2.0625,-0.5,0,-0.6503906,0.02099609,0.7875977,0.2666016,0.3017578,-0.487793
416,-2.125,-0.6875,-0.25,-0.6660156,-0.005859375,0.8334961,0.2607422,0.3017578,-0.4736328
419,-2.25,-0.4375,0,-0.6777344,0.01708984,0.7680664,0.2607422,0.3017578,-0.4736328
422,-2,0.4375,1.0625,-0.6738281,0.02099609,0.8066406,0.2607422,0.2993164,-0.4765625
425,-1.5,0.9375,1.3125,-0.6425781,0.005371094,0.7836914,0.2607422,0.2993164,-0.4765625
428,-1.6875,0.3125,1.5625,-0.6621094,-0.001953125,0.7641602,0.2666016,0.3046875,-0.4848633
431,-1.625,0.3125,1.875,-0.6816406,0.03662109,0.7875977,0.2666016,0.3046875,-0.4824219
434,-2.125,0.4375,1.5,-0.6777344,0.01318359,0.7988281,0.2666016,0.3046875,-0.4824219
437,-1.9375,0.875,1.5,-0.6738281,0.02880859,0.7797852,0.2695313,0.3076172,-0.4765625
440,-1.375,1.75,1.3125,-0.6816406,0.009277344,0.7949219,0.2695313,0.3076172,-0.4765625
443,-0.5625,2.625,1.0625,-0.6933594,0.001464844,0.7875977,0.2636719,0.3046875,-0.4736328
446,-1.4375,1.8125,0.875,-0.6894531,0.02490234,0.7719727,0.2636719,0.3017578,-0.4794922
449,-2.1875,1.125,0.625,-0.6933594,0.01708984,0.7529297,0.2636719,0.3017578,-0.4794922
452,-2.375,0.875,0.9375,-0.7050781,-0.009765625,0.7568359,0.2578125,0.3046875,-0.487793
455,-2.3125,-0.125,1.1875,-0.6894531,0.02099609,0.7875977,0.2578125,0.3046875,-0.487793
458,-2.625,-0.25,1.0625,-0.6972656,0.001464844,0.8066406,0.2666016,0.2993164,-0.4794922
461,-2.3125,0.0625,1.3125,-0.6542969,0.02099609,0.7949219,0.2666016,0.2993164,-0.4794922
464,-1.75,0.625,1.375,-0.7011719,0.009277344,0.8027344,0.2724609,0.3046875,-0.4824219
467,-2.0625,0.375,1.1875,-0.6933594,0.02490234,0.7836914,0.2578125,0.3046875,-0.4765625
470,-2.625,-0.0625,1.125,-0.6699219,0.01708984,0.7719727,0.2578125,0.3046875,-0.4765625
473,-2.6875,-0.6875,0.3125,-0.7207031,0.03662109,0.7758789,0.2636719,0.2993164,-0.4765625
476,-3.1875,-0.5625,1,-0.6621094,0.03662109,0.6992188,0.2636719,0.2993164,-0.4765625
479,-2.6875,-0.625,1,-0.7089844,0.001464844,0.7988281,0.2636719,0.3017578,-0.4794922
482,-2.4375,-0.4375,0.9375,-0.6816406,0.001464844,0.7719727,0.2636719,0.3076172,-0.4794922
485,-1.9375,0.125,0.6875,-0.6855469,-0.01367188,0.7641602,0.2636719,0.3076172,-0.4794922
488,-1,0.875,0.5625,-0.6855469,0.01318359,0.7719727,0.2607422,0.2963867,-0.4824219
491,-1,0.5,0,-0.6777344,0.02880859,0.7875977,0.2607422,0.2963867,-0.4824219
494,-1.5,0.1875,0.125,-0.6894531,0.001464844,0.7641602,0.2666016,0.2993164,-0.4824219
497,-1.125,0.5,0.3125,-0.6855469,0.03662109,0.7568359,0.2666016,0.2993164,-0.4824219
500,-0.5625,0.9375,0.6875,-0.6933594,0.02880859,0.7719727,0.2636719,0.3017578,-0.4736328
503,-0.5,1.125,0.6875,-0.7011719,0.02880859,0.7451172,0.2666016,0.3076172,-0.4936523
506,-0.6875,1.1875,0.875,-0.6933594,-0.005859375,0.7719727,0.2666016,0.3076172,-0.4936523
509,-1.0625,0.8125,0.3125,-0.6933594,-0.005859375,0.7949219,0.2666016,0.2993164,-0.4824219
512,-1.375,0,0.125,-0.6855469,0.001464844,0.7451172,0.2666016,0.2993164,-0.4824219
515,-1.9375,-0.625,0.5625,-0.6777344,0.001464844,0.7641602,0.2636719,0.3046875,-0.4765625
518,-2.1875,-1.6875,1.0625,-0.6855469,-0.001953125,0.7758789,0.2666016,0.3046875,-0.4848633
521,-2.3125,-1.3125,0.5625,-0.6855469,0.005371094,0.7719727,0.2666016,0.3046875,-0.4848633
524,-1.4375,-0.9375,0.875,-0.6621094,0.009277344,0.8027344,0.2636719,0.3046875,-0.4765625
527,-0.4375,0.0625,1.0625,-0.6582031,0.005371094,0.7797852,0.2636719,0.3046875,-0.4765625
530,-0.1875,0.25,1.6875,-0.6855469,0.009277344,0.7641602,0.2749023,0.3076172,-0.4848633
533,-0.3125,-0.1875,1.5,-0.6816406,0.005371094,0.7719727,0.2749023,0.3076172,-0.4848633
536,-0.4375,0.1875,1.5625,-0.7050781,0.03662109,0.7875977,0.2749023,0.3076172,-0.4848633
539,-0.5,0,0.8125,-0.6972656,0.02099609,0.7875977,0.2695313,0.3046875,-0.4765625
542,-0.8125,-0.625,0.6875,-0.6777344,-0.001953125,0.7875977,0.2695313,0.3046875,-0.4765625
545,-1,-0.3125,0.75,-0.6738281,0.005371094,0.7719727,0.2695313,0.3017578,-0.4794922
548,-0.875,-0.4375,0.1875,-0.6542969,0.009277344,0.8066406,0.2695313,0.3017578,-0.4794922
551,-0.8125,0,-0.1875,-0.7011719,0.005371094,0.7719727,0.2695313,0.2910156,-0.4765625
554,-0.5,0,-0.25,-0.6777344,0.01318359,0.7641602,0.2695313,0.3017578,-0.4765625
557,-1.0625,-0.25,-0.25,-0.6464844,0.01318359,0.7915039,0.2695313,0.3017578,-0.4765625
560,-0.4375,0.125,-0.875,-0.6660156,0.02099609,0.7680664,0.2666016,0.3046875,-0.4794922
563,-0.125,-1.75,-1.1875,-0.7011719,0.04833984,0.7490234,0.2666016,0.3046875,-0.4794922
566,-1.5,-3.8125,-1.25,-0.7011719,0.01708984,0.7875977,0.2666016,0.3046875,-0.4794922
569,-1,-2.1875,-1.1875,-0.6621094,-0.01367188,0.7988281,0.2695313,0.3046875,-0.4824219
572,-0.375,-0.125,-0.5625,-0.6894531,-0.009765625,0.7949219,0.2695313,0.3046875,-0.4824219
575,-0.25,0.4375,-0.3125,-0.6933594,-0.005859375,0.7797852,0.2666016,0.3100586,-0.4794922
578,-0.8125,0.3125,0.0625,-0.6855469,0.009277344,0.7758789,0.2666016,0.3100586,-0.4794922
581,-0.4375,1,0.5625,-0.7089844,0.01708984,0.7641602,0.2578125,0.3100586,-0.4907227
584,-0.625,1.25,0.8125,-0.6933594,-0.01367188,0.7529297,0.2578125,0.3100586,-0.4907227
587,-1.3125,0.5625,1.75,-0.6777344,0.009277344,0.7490234,0.2636719,0.3046875,-0.4907227
590,-1.125,0.8125,2.4375,-0.6660156,0.01708984,0.7758789,0.2695313,0.3017578,-0.4824219
593,-1.125,0.4375,2.5625,-0.6972656,-0.009765625,0.7797852,0.2695313,0.3017578,-0.4824219
596,-0.8125,0.8125,2.125,-0.6660156,0.02490234,0.7490234,0.2695313,0.3017578,-0.4824219
599,-0.625,1.9375,1.8125,-0.6699219,0.001464844,0.8183594,0.2695313,0.3017578,-0.4824219
602,0.1875,2.1875,1.6875,-0.6425781,0.01318359,0.7836914,0.2695313,0.3046875,-0.465332
605,-0.0625,2.0625,0.8125,-0.6894531,0.01708984,0.7875977,0.2695313,0.3046875,-0.4824219
608,-0.75,1.4375,0.6875,-0.6699219,0.01318359,0.7797852,0.2695313,0.3046875,-0.4824219
611,-0.75,1.875,0.1875,-0.7050781,0.01708984,0.7875977,0.2695313,0.3046875,-0.4765625
614,-0.5625,1.375,0,-0.6894531,0.02880859,0.7797852,0.2695313,0.3046875,-0.4765625
617,-0.4375,1.5,-0.625,-0.6816406,-0.01367188,0.7875977,0.2636719,0.3076172,-0.487793
620,-0.6875,1.5,-0.3125,-0.7089844,0.005371094,0.7797852,0.2636719,0.3076172,-0.487793
623,-0.875,1,-0.0625,-0.7011719,0.01708984,0.7875977,0.2724609,0.3046875,-0.4848633
626,-1.0625,0.875,-0.4375,-0.7011719,0.01318359,0.7641602,0.2724609,0.3046875,-0.4848633
629,-1.375,0.8125,-0.8125,-0.6855469,0.001464844,0.7451172,0.2724609,0.3046875,-0.4848633
632,-1,-0.0625,-0.5,-0.7050781,0.03662109,0.7607422,0.2724609,0.3100586,-0.4765625
635,-1.6875,-0.9375,-0.375,-0.6933594,0.02490234,0.7719727,0.2724609,0.3100586,-0.4765625
638,-1.5625,-1.25,-0.3125,-0.6660156,0.01318359,0.7568359,0.2666016,0.3046875,-0.4677734
641,-1.375,-1.5625,-0.125,-0.7050781,0.009277344,0.7875977,0.2749023,0.3017578,-0.4736328
644,0,-0.5,0.1875,-0.6738281,0.005371094,0.7758789,0.2749023,0.3017578,-0.4736328
647,0.75,0.4375,0,-0.6777344,-0.009765625,0.7680664,0.2724609,0.3017578,-0.4907227
650,1.0625,1.75,-0.0625,-0.6660156,0.03662109,0.7836914,0.2724609,0.3017578,-0.4907227
653,1.5,1.8125,0,-0.6699219,-0.009765625,0.7719727,0.2636719,0.3046875,-0.4765625
656,0.625,0.6875,-0.125,-0.6738281,0.03662109,0.7490234,0.2636719,0.3046875,-0.4765625
659,-0.375,-0.75,0,-0.6972656,0.02490234,0.7568359,0.2724609,0.3017578,-0.487793
662,-0.625,-0.9375,0.125,-0.6660156,0.02099609,0.7719727,0.2807617,0.3017578,-0.4995117
665,-0.625,-0.375,0.5,-0.6894531,0.005371094,0.7836914,0.2807617,0.3017578,-0.4995117
668,0.1875,0.125,0.3125,-0.6933594,0.02099609,0.7915039,0.2636719,0.3100586,-0.4794922
671,0.9375,0,0.25,-0.6542969,-0.001953125,0.7719727,0.2636719,0.3100586,-0.4794922
674,0.3125,-0.4375,0.5625,-0.6621094,0.02099609,0.7797852,0.2724609,0.3017578,-0.4848633
677,0.5625,0.25,0.625,-0.6660156,-0.03710938,0.7719727,0.2749023,0.3017578,-0.487793
680,0.625,0.25,0.5625,-0.6894531,0.02880859,0.7529297,0.2749023,0.3017578,-0.487793
683,0.1875,0.9375,0.5625,-0.6894531,-0.005859375,0.7915039,0.2695313,0.2993164,-0.4824219
686,0,1.375,0.3125,-0.6816406,-0.009765625,0.7875977,0.2695313,0.2993164,-0.4824219
689,-0.3125,0.5,-0.125,-0.6738281,0.03271484,0.7797852,0.2695313,0.2963867,-0.4765625
692,-1.0625,-0.0625,-0.3125,-0.7050781,0.005371094,0.7988281,0.2695313,0.3100586,-0.487793
695,-1.5625,-0.0625,-0.3125,-0.6660156,0.009277344,0.7875977,0.2695313,0.3100586,-0.487793
698,-0.5625,0.375,-0.4375,-0.6855469,0.01318359,0.8027344,0.2666016,0.3017578,-0.4794922
701,-0.5,0.6875,-0.4375,-0.6621094,0.009277344,0.7719727,0.2666016,0.3017578,-0.4794922
704,-0.125,1.1875,-0.375,-0.6503906,0.03271484,0.8183594,0.2695313,0.3046875,-0.4794922
707,0,1,-0.25,-0.6894531,0.009277344,0.7719727,0.2695313,0.3046875,-0.4794922
710,-0.25,0.25,-0.3125,-0.7167969,0.01318359,0.7568359,0.2666016,0.3076172,-0.4765625
713,-0.1875,-0.25,-0.5625,-0.6816406,0.03662109,0.8027344,0.277832,0.3046875,-0.4765625
716,-0.0625,0.3125,-0.375,-0.6816406,-0.001953125,0.7607422,0.277832,0.3046875,-0.4765625
719,0.375,0.8125,0.125,-0.7050781,0.009277344,0.7758789,0.2666016,0.3046875,-0.4765625
722,0.3125,1.3125,0.3125,-0.6894531,0.009277344,0.7529297,0.2666016,0.3046875,-0.4765625
725,0.25,0.875,0.5,-0.7089844,0.03271484,0.7758789,0.2607422,0.3017578,-0.4824219
728,0.25,0.8125,0,-0.6855469,0.02880859,0.7607422,0.2695313,0.2963867,-0.4794922
731,-0.0625,0.4375,0.125,-0.6582031,0.01708984,0.7758789,0.2695313,0.2963867,-0.4794922
734,0,0,-0.1875,-0.6816406,0.01318359,0.7836914,0.2636719,0.3076172,-0.4736328
737,0.3125,0.3125,0.0625,-0.6855469,0.005371094,0.7836914,0.2636719,0.3076172,-0.4736328
740,0,0,-0.0625,-0.6933594,0.02099609,0.7836914,0.2636719,0.3129883,-0.4824219
743,-0.3125,-0.6875,-0.625,-0.6933594,0.02099609,0.7797852,0.2636719,0.3129883,-0.4824219
746,-0.375,-0.625,-0.8125,-0.6933594,0.02099609,0.7607422,0.2607422,0.3017578,-0.4794922
749,-0.4375,-0.1875,-1,-0.6933594,0.005371094,0.8144531,0.2607422,0.3076172,-0.4707031
752,-0.3125,0.1875,-0.5625,-0.6894531,0.02490234,0.8027344,0.2607422,0.3076172,-0.4707031
755,0.0625,0.375,-0.375,-0.7011719,0.03662109,0.7680664,0.2636719,0.3046875,-0.4736328
758,-0.5625,-0.125,-0.4375,-0.6972656,0.009277344,0.7758789,0.2636719,0.3046875,-0.4736328
761,-0.875,-1,-1.125,-0.6894531,-0.001953125,0.7758789,0.2695313,0.2993164,-0.4794922
764,-0.8125,-0.5625,-0.875,-0.6621094,-0.009765625,0.7875977,0.2724609,0.2963867,-0.487793
767,-0.0625,-0.25,-0.75,-0.6972656,0.01318359,0.7949219,0.2724609,0.2963867,-0.487793
770,0,0.0625,-0.875,-0.6855469,-0.001953125,0.7568359,0.2724609,0.2963867,-0.4824219
773,0.625,0.9375,-1.125,-0.6894531,0.02099609,0.7680664,0.2724609,0.2963867,-0.4824219
776,0.6875,0.6875,-0.6875,-0.6855469,-0.005859375,0.7797852,0.2749023,0.3046875,-0.4848633
779,0.6875,0.75,-1,-0.6972656,0.02099609,0.7568359,0.2749023,0.3046875,-0.4848633
782,0.3125,0.25,-0.75,-0.6972656,-0.005859375,0.7680664,0.2695313,0.3017578,-0.4907227
785,0.1875,-0.1875,-0.8125,-0.6855469,0.02099609,0.7451172,0.2695313,0.3017578,-0.4907227
788,0,-0.875,-0.625,-0.6816406,0.02880859,0.7875977,0.2695313,0.3017578,-0.4907227
791,0.5,-0.4375,-0.625,-0.6933594,0.009277344,0.7758789,0.2749023,0.2963867,-0.4848633
794,0.5,0,-0.75,-0.6972656,0.005371094,0.7719727,0.2749023,0.2963867,-0.4848633
797,0.75,0.75,-0.875,-0.6738281,0.02880859,0.8144531,0.2636719,0.3076172,-0.4765625
800,0.875,1,-0.6875,-0.6894531,0.02099609,0.7875977,0.2749023,0.3046875,-0.496582
803,0.625,0.3125,-0.75,-0.6699219,0.01708984,0.7836914,0.2749023,0.3046875,-0.496582
806,0.1875,-1,-1.5625,-0.6621094,0.005371094,0.7490234,0.2749023,0.2963867,-0.4736328
809,-0.25,-1.6875,-1.625,-0.6894531,0.01318359,0.7949219,0.2749023,0.2963867,-0.4736328
812,0.25,-0.9375,-1.6875,-0.6777344,-0.001953125,0.7758789,0.2666016,0.3017578,-0.4848633
815,0.5,-0.125,-1,-0.6660156,0.02880859,0.7949219,0.2666016,0.3017578,-0.4848633
818,0.4375,-0.625,-1.125,-0.6738281,0.02490234,0.7568359,0.2666016,0.3017578,-0.4848633
821,0.5625,-0.1875,-0.375,-0.7011719,0.01708984,0.7680664,0.2724609,0.3100586,-0.4824219
824,1.0625,-0.5625,-0.3125,-0.6816406,0.02880859,0.7797852,0.2724609,0.3100586,-0.4824219
827,0.8125,-1.125,-0.125,-0.6777344,0.02099609,0.7568359,0.2695313,0.3017578,-0.487793
830,0.4375,-1.4375,-0.0625,-0.6699219,0.01318359,0.7719727,0.2695313,0.3017578,-0.487793
833,0.25,-0.625,-0.3125,-0.6933594,0.02880859,0.7758789,0.2695313,0.3046875,-0.4794922
836,0.4375,0.375,-0.3125,-0.6660156,0.03271484,0.7680664,0.2695313,0.3017578,-0.4936523
839,0.8125,1.25,0.375,-0.6582031,0.009277344,0.7758789,0.2695313,0.3017578,-0.4936523
842,0.875,1,1.125,-0.6738281,0.03662109,0.7607422,0.277832,0.2963867,-0.4936523
845,1.4375,1.0625,2.1875,-0.6738281,-0.001953125,0.7568359,0.277832,0.2963867,-0.4936523
848,1.3125,1.125,2.6875,-0.6933594,0.001464844,0.7641602,0.277832,0.2963867,-0.4936523
851,0.625,0.5,2.75,-0.6777344,0.005371094,0.7412109,0.2749023,0.3046875,-0.487793
854,-1.75,-1.5625,3.6875,-0.6972656,0.009277344,0.7529297,0.2749023,0.3046875,-0.487793
857,-1.0625,-2.875,2.25,-0.6582031,0.03662109,0.7915039,0.277832,0.3017578,-0.487793
860,-0.125,-0.8125,1.0625,-0.6582031,0.02880859,0.7915039,0.277832,0.3017578,-0.487793
863,0.6875,0.3125,0.75,-0.6933594,0.01318359,0.7836914,0.2578125,0.3046875,-0.487793
866,1.3125,0.8125,1.375,-0.6621094,0.02099609,0.8027344,0.2578125,0.3046875,-0.487793
869,1.375,1.8125,1.375,-0.7128906,0.03271484,0.7719727,0.2724609,0.3017578,-0.4936523
872,1.125,1.875,0.6875,-0.7011719,0.005371094,0.7875977,0.2695313,0.2963867,-0.4707031
875,1,1.8125,0.3125,-0.7089844,0.005371094,0.8027344,0.2695313,0.2963867,-0.4707031
878,0.1875,1.125,0,-0.7089844,0.02880859,0.7607422,0.2695313,0.2963867,-0.4707031
881,-0.5,0.4375,-0.25,-0.7089844,0.01708984,0.7758789,0.2695313,0.2963867,-0.4707031
884,-0.6875,0.5,-0.6875,-0.7050781,-0.001953125,0.7568359,0.2636719,0.3076172,-0.4794922
887,-0.3125,0.125,-0.6875,-0.7011719,0.009277344,0.7719727,0.2749023,0.2963867,-0.4736328
890,-0.75,-0.8125,-0.375,-0.6699219,-0.001953125,0.7875977,0.2749023,0.2963867,-0.4736328
893,-1.125,-1.125,-0.375,-0.6816406,0.01708984,0.7836914,0.2607422,0.2993164,-0.4936523
896,0.5,-0.8125,-0.3125,-0.6816406,0.02880859,0.7719727,0.2607422,0.2993164,-0.4936523
899,0.3125,-1.125,-0.375,-0.6660156,0.01708984,0.7836914,0.2695313,0.2993164,-0.4794922
902,0.3125,-1.3125,0,-0.6738281,0.03662109,0.7641602,0.2695313,0.2993164,-0.4794922
905,0.4375,-1.375,-0.0625,-0.6660156,0.02490234,0.7758789,0.2749023,0.3046875,-0.4824219
908,0.875,-1.125,0,-0.6660156,0.02490234,0.7836914,0.2666016,0.293457,-0.4794922
911,1,-0.5,0.25,-0.7089844,0.02099609,0.7915039,0.2666016,0.293457,-0.4794922
914,1.625,0,0.6875,-0.7011719,-0.005859375,0.7875977,0.2724609,0.3046875,-0.487793
917,0.875,0,0.875,-0.6660156,0.02880859,0.7719727,0.2724609,0.3046875,-0.487793
920,1.1875,0.5,0,-0.6855469,0.06005859,0.7988281,0.2749023,0.3046875,-0.4907227
923,0.875,0.4375,1.375,-0.7050781,0.02880859,0.7719727,0.2636719,0.3046875,-0.4736328
926,-0.375,-0.3125,1.25,-0.6503906,0.01708984,0.7797852,0.2636719,0.3046875,-0.4736328
929,-0.25,-0.6875,0.6875,-0.6894531,0.02099609,0.7836914,0.2695313,0.3017578,-0.4824219
932,0.25,-1.3125,-0.125,-0.6855469,0.01708984,0.7875977,0.2695313,0.3017578,-0.4824219
935,0,-0.5,0,-0.6542969,0.005371094,0.7797852,0.2695313,0.3076172,-0.4794922
938,-0.375,-0.25,0,-0.7011719,0.01708984,0.8027344,0.2695313,0.3076172,-0.4794922
941,0.0625,0.125,-0.125,-0.6582031,-0.001953125,0.7797852,0.2607422,0.3017578,-0.4794922
944,0.5625,-0.0625,0,-0.6777344,0.01708984,0.7680664,0.2666016,0.2993164,-0.4936523
947,0.375,-0.5,0.0625,-0.6777344,0.01318359,0.7836914,0.2666016,0.2993164,-0.4936523
950,0,-0.8125,0.125,-0.6503906,0.005371094,0.7836914,0.2724609,0.3046875,-0.4824219
953,0.125,-0.125,0.25,-0.6972656,0.009277344,0.7719727,0.2724609,0.3046875,-0.4824219
956,-0.4375,-0.375,-0.0625,-0.6777344,0.03271484,0.7719727,0.2695313,0.2993164,-0.4794922
959,-0.9375,-1.125,-0.125,-0.6777344,-0.005859375,0.7719727,0.2866211,0.2963867,-0.4848633
962,-0.875,-1.1875,0.1875,-0.6855469,0.009277344,0.7641602,0.2866211,0.2963867,-0.4848633
965,-0.6875,-0.6875,0.0625,-0.6699219,0.01708984,0.7797852,0.2695313,0.293457,-0.4824219
968,0,-0.3125,0.3125,-0.6933594,0.009277344,0.7797852,0.2695313,0.293457,-0.4824219
971,-0.625,-0.5625,-0.0625,-0.6972656,0.01708984,0.7875977,0.2724609,0.3076172,-0.4794922
974,-1.0625,0,-0.0625,-0.6699219,0.001464844,0.8183594,0.2695313,0.3017578,-0.4824219
977,-0.75,0.4375,-0.0625,-0.6855469,0.03662109,0.7758789,0.2695313,0.3017578,-0.4824219
980,-0.4375,0.625,0.125,-0.6816406,0.009277344,0.7607422,0.2724609,0.2993164,-0.4907227
983,0,0.875,0.625,-0.6542969,0.01318359,0.7797852,0.2724609,0.2993164,-0.4907227
986,0.0625,0.6875,0.8125,-0.6582031,0.02880859,0.7836914,0.2724609,0.293457,-0.487793
989,-0.4375,0.5625,0.875,-0.6621094,0.05224609,0.8066406,0.2724609,0.293457,-0.487793
992,-0.4375,1.0625,0.8125,-0.6816406,0.02099609,0.7797852,0.2836914,0.293457,-0.4936523
995,-0.0625,0.8125,0.25,-0.6738281,0.02099609,0.7719727,0.2695313,0.3017578,-0.4824219
998,-0.5,0.9375,-0.1875,-0.6894531,0.03271484,0.7529297,0.2695313,0.3017578,-0.4824219
1001,-0.1875,0.8125,-0.75,-0.6855469,0.02099609,0.7836914,0.2749023,0.3017578,-0.4848633
1004,-0.3125,0.9375,-0.75,-0.6894531,0.02099609,0.7836914,0.2749023,0.3017578,-0.4848633
1007,-0.8125,0.5,-0.8125,-0.7011719,0.02099609,0.7719727,0.2695313,0.3046875,-0.4907227
1010,-0.9375,0.125,-0.8125,-0.6777344,0.02880859,0.7719727,0.2636719,0.3100586,-0.487793
1013,-1.1875,0.1875,-0.5625,-0.6855469,0.009277344,0.7875977,0.2636719,0.3100586,-0.487793
1016,-1.375,-0.8125,-0.9375,-0.6816406,0.01318359,0.7836914,0.2666016,0.3076172,-0.4824219
1019,-1.5625,-1.1875,-0.875,-0.6738281,0.02880859,0.8027344,0.2666016,0.3076172,-0.4824219
1022,-1.375,-0.6875,-0.875,-0.6699219,0.005371094,0.7836914,0.2724609,0.3076172,-0.4907227
1025,-0.8125,-0.625,-1.125,-0.6738281,0.03662109,0.7641602,0.2724609,0.3076172,-0.4907227
1028,-0.25,-0.5,-1.0625,-0.6777344,0.02880859,0.7949219,0.2607422,0.2993164,-0.4848633
1031,-0.25,-0.5,-0.4375,-0.7011719,0.03662109,0.7836914,0.2636719,0.2963867,-0.4824219
1034,-0.1875,-0.8125,-0.3125,-0.6660156,0.005371094,0.7568359,0.2636719,0.2963867,-0.4824219
1037,-0.5,-1.25,-0.4375,-0.6816406,0.03662109,0.7641602,0.2666016,0.2993164,-0.487793
1040,-0.875,-1.3125,-0.5,-0.6777344,0.03271484,0.7641602,0.2666016,0.2993164,-0.487793
1043,-1.0625,-1.4375,-0.1875,-0.6777344,0.009277344,0.7797852,0.2636719,0.2993164,-0.4794922
1046,-1.125,-2.125,-0.25,-0.6855469,0.02880859,0.7758789,0.2666016,0.2963867,-0.4824219
1049,-0.75,-1.6875,-0.0625,-0.6972656,0.009277344,0.7988281,0.2666016,0.2963867,-0.4824219
1052,-0.3125,-1.25,0.1875,-0.7011719,0.03662109,0.7915039,0.2724609,0.293457,-0.4936523
1055,0.125,-0.5,-0.25,-0.6582031,0.01318359,0.7797852,0.2724609,0.293457,-0.4936523
1058,-0.25,-0.3125,-0.375,-0.6777344,0.005371094,0.7641602,0.2666016,0.3076172,-0.4824219
1061,-0.3125,-0.0625,-0.375,-0.6738281,0.03271484,0.7797852,0.2666016,0.3076172,-0.4824219
1064,-0.125,-0.5,-0.5625,-0.6503906,0.01318359,0.7607422,0.2666016,0.2993164,-0.4794922
1067,-0.5625,-1.1875,-0.25,-0.6660156,0.02099609,0.7836914,0.2666016,0.2993164,-0.4794922
1070,-0.9375,-1.5,-0.625,-0.6855469,0.02099609,0.7875977,0.2666016,0.2993164,-0.4794922
1073,-1.0625,-1.6875,-0.75,-0.6699219,0.02880859,0.7915039,0.2807617,0.2963867,-0.4794922
1076,-0.8125,-1.75,-0.8125,-0.6621094,0.009277344,0.7797852,0.2807617,0.2963867,-0.4794922
1079,-0.5,-1.4375,-0.875,-0.6855469,-0.009765625,0.7915039,0.2666016,0.2993164,-0.4824219
1082,-0.6875,-1.3125,-0.625,-0.7011719,0.04833984,0.8105469,0.2749023,0.3046875,-0.4794922
1085,-0.6875,-1.25,-0.25,-0.6855469,0.005371094,0.7949219,0.2749023,0.3046875,-0.4794922
1088,-0.6875,-1.0625,-0.0625,-0.6621094,0.02099609,0.7490234,0.2666016,0.3017578,-0.4765625
1091,-0.1875,-0.75,-0.4375,-0.6894531,0.02099609,0.7988281,0.2666016,0.3017578,-0.4765625
1094,-0.125,-0.8125,-0.9375,-0.6894531,0.02880859,0.8066406,0.2666016,0.3046875,-0.4824219
1097,-0.1875,-0.5,-1.1875,-0.6894531,0.02880859,0.7797852,0.2666016,0.3046875,-0.4824219
1100,-0.8125,-0.5,-1.5,-0.6933594,0.04052734,0.7529297,0.2666016,0.3046875,-0.4824219
1103,0.0625,0.5625,-0.875,-0.6503906,0.01708984,0.7607422,0.2724609,0.3017578,-0.4907227
1106,0.8125,1.3125,-0.3125,-0.6855469,0.001464844,0.7641602,0.2724609,0.3017578,-0.4907227
1109,0.5,1.4375,0.8125,-0.6582031,0.009277344,0.7607422,0.2636719,0.293457,-0.4736328
1112,0.5,1.1875,1.5,-0.6894531,0.03271484,0.7641602,0.2636719,0.293457,-0.4736328
1115,0,0.5625,1.375,-0.6972656,0.04833984,0.7758789,0.2636719,0.2963867,-0.4848633
1118,-0.25,-0.125,1.125,-0.6582031,0.02880859,0.7490234,0.2636719,0.3076172,-0.4736328
1121,-0.25,-0.25,0.9375,-0.6738281,0.01708984,0.7915039,0.2636719,0.3076172,-0.4736328
1124,-0.8125,-0.875,0.625,-0.6386719,-0.005859375,0.7915039,0.2724609,0.293457,-0.4794922
1127,-1.1875,-1.0625,0.25,-0.6503906,0.03662109,0.7719727,0.2724609,0.293457,-0.4794922
1130,-1,-0.4375,-0.375,-0.6464844,0.02099609,0.7836914,0.2724609,0.293457,-0.4794922
1133,-0.25,0.3125,-1,-0.6660156,0.001464844,0.7797852,0.2695313,0.2910156,-0.4824219
1136,-0.125,0,-1.25,-0.6621094,0.001464844,0.7797852,0.2695313,0.2910156,-0.4824219
1139,-0.375,-0.125,-1.375,-0.6816406,0.005371094,0.7875977,0.2836914,0.315918,-0.4824219
1142,-0.4375,-0.625,-1.6875,-0.6855469,0.02880859,0.7719727,0.2836914,0.315918,-0.4824219
1145,-0.125,-0.8125,-2.125,-0.6738281,0.01318359,0.8105469,0.2666016,0.3046875,-0.4907227
1148,-0.25,-0.375,-1.8125,-0.6660156,0.01708984,0.7836914,0.2666016,0.3046875,-0.4907227
1151,-0.625,-0.5,-1.625,-0.6855469,0.005371094,0.7607422,0.2666016,0.2993164,-0.4907227
1154,-0.625,-0.875,-1.125,-0.6855469,0.001464844,0.7607422,0.277832,0.2993164,-0.4824219
1157,-0.875,-1.125,-1,-0.6660156,0.02880859,0.7451172,0.277832,0.2993164,-0.4824219
1160,-0.1875,-0.3125,-0.625,-0.6738281,0.02490234,0.7949219,0.2695313,0.3017578,-0.4995117
1163,0.3125,0.5,-0.4375,-0.7050781,0.01708984,0.7568359,0.2695313,0.3017578,-0.4995117
1166,0.4375,0.75,-0.4375,-0.6660156,0.01708984,0.7836914,0.2636719,0.2963867,-0.4824219
1169,0.0625,0.4375,-0.375,-0.6894531,0.03271484,0.7490234,0.2578125,0.3076172,-0.4848633
1172,-0.1875,0,-0.6875,-0.6816406,0.001464844,0.7797852,0.2578125,0.3076172,-0.4848633
1175,-0.3125,-0.5625,-0.5625,-0.6738281,0.01708984,0.7836914,0.2695313,0.2993164,-0.4824219
1178,-0.625,-1.3125,-0.625,-0.6894531,0.02099609,0.7915039,0.2695313,0.2993164,-0.4824219
1181,-0.625,-1.4375,-0.4375,-0.6816406,0.01318359,0.7988281,0.2724609,0.2963867,-0.4936523
1184,-0.0625,-1.25,-0.25,-0.6777344,0.01318359,0.7915039,0.2724609,0.2963867,-0.4936523
1187,0.125,-1.5625,-0.375,-0.6621094,0.01318359,0.8105469,0.2724609,0.3017578,-0.487793
1190,-0.125,-2.625,-0.6875,-0.6660156,-0.005859375,0.8144531,0.2636719,0.3017578,-0.4907227
1193,0.1875,-2.5625,-0.6875,-0.6542969,0.02490234,0.8066406,0.2636719,0.3017578,-0.4907227
1196,0.1875,-1.75,-0.9375,-0.6816406,0.005371094,0.7797852,0.2666016,0.3046875,-0.4765625
1199,0.5,-0.75,-0.75,-0.6816406,0.02099609,0.7915039,0.2666016,0.3046875,-0.4765625
1202,0.75,-0.6875,-1,-0.6894531,0.01708984,0.7915039,0.2666016,0.2963867,-0.4848633
1205,0.125,-0.5,-1.5,-0.6777344,0.02490234,0.7797852,0.2607422,0.3017578,-0.4794922
1208,-0.3125,-0.25,-1.625,-0.6816406,-0.001953125,0.7719727,0.2607422,0.3017578,-0.4794922
1211,-0.5625,-0.625,-1.9375,-0.6621094,0.03271484,0.7758789,0.2666016,0.3017578,-0.4848633
1214,-1.0625,-1.125,-1.9375,-0.6660156,0.005371094,0.7568359,0.2666016,0.3017578,-0.4848633
1217,-0.5,-0.6875,-2.125,-0.6777344,0.01318359,0.7949219,0.2695313,0.3046875,-0.4824219
1220,-0.5625,-0.25,-1.3125,-0.6660156,0.02490234,0.7949219,0.2695313,0.3046875,-0.4824219
1223,-0.375,0.75,-0.3125,-0.6738281,-0.009765625,0.8027344,0.2578125,0.2993164,-0.4848633
1226,0.1875,0.5,-0.3125,-0.6816406,-0.009765625,0.7758789,0.2636719,0.3100586,-0.4794922
1229,0.0625,0.3125,0,-0.6855469,0.02099609,0.7949219,0.2636719,0.3100586,-0.4794922
1232,0.0625,0,0.4375,-0.6699219,0.01318359,0.7719727,0.2636719,0.3076172,-0.4765625
1235,0,-0.4375,0.4375,-0.6425781,-0.005859375,0.7875977,0.2636719,0.3076172,-0.4765625
1238,0,-0.875,0.6875,-0.6582031,0.02880859,0.7915039,0.2666016,0.2910156,-0.487793
1241,0.0625,-0.75,0.1875,-0.6699219,0.02099609,0.7988281,0.2866211,0.3046875,-0.4848633
1244,0.6875,-0.0625,-0.0625,-0.6464844,0.03662109,0.7915039,0.2866211,0.3046875,-0.4848633
1247,0.5,-0.125,-0.5,-0.7089844,0.02490234,0.7988281,0.2636719,0.3017578,-0.4848633
1250,0,-0.625,-1,-0.6816406,0.02490234,0.7758789,0.2636719,0.3017578,-0.4848633
1253,-0.5,-0.5,-1.3125,-0.6855469,0.01318359,0.8105469,0.2724609,0.2963867,-0.4765625
1256,-0.25,0,-1.25,-0.6660156,0.02880859,0.7641602,0.2636719,0.3076172,-0.4907227
1259,0.25,0.4375,-1.4375,-0.6933594,0.01318359,0.7758789,0.2636719,0.3076172,-0.4907227
1262,-0.1875,0.125,-1.3125,-0.7089844,0.005371094,0.7797852,0.2695313,0.3017578,-0.4736328
1265,-0.5,0,-1.3125,-0.6777344,0.01318359,0.7607422,0.2695313,0.3017578,-0.4736328
1268,0.3125,0.9375,-0.875,-0.6816406,0.009277344,0.7875977,0.2636719,0.3046875,-0.4794922
1271,0,0.5625,-0.5,-0.6777344,0.02099609,0.7915039,0.2636719,0.3046875,-0.4794922
1274,0.5,0.9375,-0.1875,-0.6699219,0.009277344,0.7758789,0.2636719,0.3017578,-0.4794922
1277,1.5625,1.6875,0,-0.7011719,0.01708984,0.7641602,0.2666016,0.2993164,-0.4824219
1280,1.6875,2.375,0.0625,-0.6621094,0.005371094,0.7988281,0.2666016,0.2993164,-0.4824219
1283,1.9375,3,0.4375,-0.6933594,0.02099609,0.7758789,0.2636719,0.2993164,-0.4794922
1286,1.1875,2.5,0.125,-0.7011719,0.009277344,0.7719727,0.2636719,0.2993164,-0.4794922
1289,0.25,1.4375,-0.125,-0.6972656,-0.02539063,0.7836914,0.2695313,0.2993164,-0.4907227
1292,0.25,0.75,-0.5625,-0.6855469,0.01708984,0.7949219,0.2666016,0.3129883,-0.4794922
1295,-0.5625,0.3125,-0.75,-0.6660156,0.03271484,0.7915039,0.2666016,0.3129883,-0.4794922
1298,-0.625,1,-0.375,-0.6972656,0.04443359,0.7988281,0.2695313,0.2910156,-0.4824219
1301,-0.5625,1.8125,-0.5625,-0.6777344,0.01318359,0.7875977,0.2695313,0.2910156,-0.4824219
1304,-0.25,2,-0.5,-0.7011719,0.01708984,0.7758789,0.277832,0.293457,-0.4907227
1307,-0.4375,2.0625,-0.6875,-0.6777344,0.03271484,0.7758789,0.277832,0.293457,-0.4907227
1310,-0.875,1.375,-0.75,-0.6699219,0.03271484,0.7719727,0.2636719,0.2963867,-0.487793
1313,-1.25,0.4375,-0.3125,-0.6738281,0.009277344,0.7607422,0.2666016,0.2963867,-0.4794922
1316,-1.1875,0.0625,-0.375,-0.6816406,-0.001953125,0.7836914,0.2666016,0.2963867,-0.4794922
1319,-0.8125,0.6875,-0.5,-0.6582031,0.03662109,0.8027344,0.2666016,0.2963867,-0.4794922
1322,0.3125,1.375,-0.625,-0.6855469,0.02490234,0.7915039,0.2666016,0.2963867,-0.4794922
1325,0.625,0.5625,-0.8125,-0.6933594,0.005371094,0.7797852,0.2636719,0.2963867,-0.4794922
1328,-0.125,-0.25,-0.75,-0.6855469,0.01708984,0.7373047,0.2666016,0.2993164,-0.487793
1331,-0.5625,-1.0625,-0.875,-0.6855469,0.04052734,0.7719727,0.2666016,0.2993164,-0.487793
1334,-1,-1,-0.8125,-0.6738281,0.03271484,0.7719727,0.2666016,0.3076172,-0.4907227
1337,-0.5625,-1.6875,-0.625,-0.6503906,0.009277344,0.7915039,0.2666016,0.3076172,-0.4907227
1340,-0.875,-0.9375,-0.6875,-0.6738281,0.03662109,0.7719727,0.2666016,0.2993164,-0.4794922
1343,0.4375,-0.125,-0.4375,-0.6542969,0.01708984,0.8105469,0.2666016,0.2993164,-0.4794922
1346,-0.1875,-0.0625,-0.4375,-0.6621094,-0.009765625,0.7875977,0.2666016,0.3017578,-0.4848633
1349,-0.875,-0.5,-0.4375,-0.6699219,0.02099609,0.7719727,0.2666016,0.3017578,-0.4848633
1352,-0.5625,-0.5,-0.375,-0.6894531,0.01708984,0.7797852,0.2666016,0.3017578,-0.4848633
1355,0,-0.6875,-0.375,-0.6660156,0.005371094,0.7797852,0.2553711,0.2910156,-0.487793
1358,0.3125,-0.4375,-0.375,-0.6621094,0.009277344,0.7836914,0.2553711,0.2910156,-0.487793
1361,0.75,-0.125,-0.625,-0.6660156,0.01708984,0.7875977,0.2553711,0.3017578,-0.4907227
1364,0.625,-0.125,-0.25,-0.6503906,0.02880859,0.7490234,0.2666016,0.3017578,-0.4907227
1367,0.25,-0.25,-0.0625,-0.6660156,0.005371094,0.7719727,0.2666016,0.3017578,-0.4907227
1370,0.25,0.4375,0.5,-0.6621094,0.02099609,0.7719727,0.2724609,0.3076172,-0.487793
1373,0.4375,0.5,1.375,-0.6660156,0.03662109,0.7875977,0.2724609,0.3076172,-0.487793
1376,0.25,0.375,2.1875,-0.6542969,-0.009765625,0.7719727,0.2636719,0.3046875,-0.4824219
1379,0.375,0.6875,2.9375,-0.6660156,0.009277344,0.7719727,0.2636719,0.3046875,-0.4824219
1382,0.4375,1.625,3,-0.6933594,-0.001953125,0.7915039,0.2636719,0.3046875,-0.4824219
1385,0.5,1.3125,2.3125,-0.6699219,0.04052734,0.7680664,0.2666016,0.2993164,-0.4848633
1388,-0.25,0.875,1.375,-0.6933594,0.02099609,0.7451172,0.2666016,0.2993164,-0.4848633
1391,-0.125,0.8125,0.9375,-0.6542969,0.03662109,0.7719727,0.2695313,0.2993164,-0.4936523
1394,-0.25,1,0.375,-0.6699219,0.005371094,0.8105469,0.2695313,0.2993164,-0.4936523
1397,0.375,0.6875,0.4375,-0.6425781,0.01318359,0.7949219,0.2666016,0.3017578,-0.4907227
1400,0.3125,0.875,0.0625,-0.7050781,0.03271484,0.8105469,0.2636719,0.2993164,-0.4936523
1403,0.1875,0.5,-0.125,-0.6855469,0.02880859,0.8027344,0.2636719,0.2993164,-0.4936523
1406,0.1875,0.5625,-0.4375,-0.6816406,0.02490234,0.8066406,0.2724609,0.3046875,-0.4848633
1409,-0.3125,0.25,-0.75,-0.7167969,0.03662109,0.7875977,0.2724609,0.3046875,-0.4848633
1412,-2.6875,-0.9375,-0.25,-0.7050781,-0.005859375,0.7568359,0.2724609,0.3046875,-0.4848633
1415,-1,-0.75,-0.375,-0.7011719,0.01708984,0.8027344,0.2607422,0.3017578,-0.4848633
1418,-1.5625,0,-0.8125,-0.6777344,0.01708984,0.7949219,0.2607422,0.3017578,-0.4848633
1421,-1.1875,1.6875,-0.125,-0.6621094,-0.001953125,0.7875977,0.2695313,0.3046875,-0.487793
1424,-0.6875,1.4375,0.75,-0.6894531,0.009277344,0.7490234,0.2695313,0.3046875,-0.487793
1427,-0.125,2.0625,1.25,-0.6777344,0.01708984,0.7641602,0.2666016,0.2963867,-0.4907227
1430,0.1875,2.75,1.4375,-0.6894531,-0.001953125,0.7719727,0.2666016,0.2963867,-0.4907227
1433,1.5,4.4375,2.3125,-0.6621094,0.02490234,0.7680664,0.2636719,0.2963867,-0.4824219
1436,2.8125,5.375,2.5,-0.6425781,0.03662109,0.7797852,0.2666016,0.2993164,-0.4824219
1439,2.5,5,2.25,-0.6777344,0.03662109,0.7719727,0.2666016,0.2993164,-0.4824219
1442,1.5,3.5,2,-0.6816406,0.01318359,0.7836914,0.2695313,0.3017578,-0.4907227
1445,0.3125,1.8125,1.5625,-0.6582031,0.03662109,0.7949219,0.2695313,0.3017578,-0.4907227
1448,-0.0625,0.875,1.5,-0.6621094,0.03662109,0.7949219,0.2724609,0.2963867,-0.4824219
1451,0.125,0.5,1.125,-0.6855469,0.03662109,0.7949219,0.2636719,0.3076172,-0.4794922
1454,-0.1875,0.1875,1.4375,-0.6777344,0.02099609,0.7949219,0.2636719,0.3076172,-0.4794922
1457,0.1875,-0.4375,1.1875,-0.6777344,0.03662109,0.8183594,0.2724609,0.3017578,-0.4936523
1460,0,-0.25,0.625,-0.6699219,0.01318359,0.7797852,0.2724609,0.3017578,-0.4936523
1463,-0.375,-1.125,0,-0.6816406,0.02880859,0.7949219,0.2695313,0.2910156,-0.4936523
1466,-0.6875,-1.6875,-0.8125,-0.6699219,-0.001953125,0.7875977,0.2695313,0.2910156,-0.4936523
1469,0.625,-0.125,-0.375,-0.6894531,0.06396484,0.7490234,0.2749023,0.2963867,-0.4995117
1472,-0.125,-2.375,-0.8125,-0.6855469,0.03271484,0.7680664,0.2724609,0.3017578,-0.487793
1475,-1.625,-1.9375,-0.5,-0.6503906,0.01708984,0.8295898,0.2724609,0.3017578,-0.487793
1478,-0.125,-0.0625,0.0625,-0.6816406,0.03662109,0.7915039,0.2749023,0.3046875,-0.4907227
1481,0.8125,0.5625,0.875,-0.6699219,0.01708984,0.7641602,0.2749023,0.3046875,-0.4907227
1484,1.3125,0.625,1.3125,-0.7285156,0.01708984,0.7680664,0.2695313,0.2993164,-0.4824219
1487,-0.6875,-0.6875,0.4375,-0.6894531,0.02099609,0.7719727,0.2724609,0.2993164,-0.4794922
1490,-1.125,-1.5625,0.625,-0.6855469,0.03271484,0.7529297,0.2724609,0.2993164,-0.4794922
1493,-0.75,-1.1875,1.0625,-0.6894531,-0.005859375,0.7607422,0.2636719,0.293457,-0.4765625
1496,0.125,-0.75,1.375,-0.6894531,0.03662109,0.7875977,0.2636719,0.293457,-0.4765625
1499,0,-1.0625,1.8125,-0.6816406,-0.009765625,0.7641602,0.2695313,0.2963867,-0.4824219
1502,0,-0.875,1.75,-0.6816406,0.01318359,0.7680664,0.2695313,0.2963867,-0.4824219
1505,-0.125,-0.375,1.4375,-0.6777344,0.005371094,0.7836914,0.2666016,0.293457,-0.4824219
1508,-0.0625,-0.3125,1,-0.6777344,0.02099609,0.7836914,0.2724609,0.3046875,-0.4794922
1511,-0.1875,0,1.125,-0.6933594,0.03271484,0.7836914,0.2724609,0.3046875,-0.4794922
1514,-1,-0.0625,1,-0.6777344,0.02099609,0.7719727,0.2695313,0.3017578,-0.4824219
1517,-1.1875,-0.3125,0.9375,-0.6972656,0.01708984,0.7875977,0.2695313,0.3017578,-0.4824219
1520,-1.1875,-0.3125,0.625,-0.6894531,0.02490234,0.7719727,0.2666016,0.3017578,-0.4907227
1523,-1.6875,-0.3125,0.8125,-0.6738281,0.005371094,0.7797852,0.2666016,0.2993164,-0.4907227
1526,-1.5,0,0.6875,-0.6582031,0.06396484,0.7758789,0.2666016,0.2993164,-0.4907227
1529,-1.1875,-0.25,1.0625,-0.6816406,0.03662109,0.7875977,0.2695313,0.293457,-0.4848633
1532,-1.4375,-0.0625,0.875,-0.6816406,0.02099609,0.7758789,0.2695313,0.293457,-0.4848633
1535,-0.75,0.4375,0.9375,-0.6933594,0.02490234,0.8027344,0.2749023,0.2993164,-0.487793
1538,0.0625,0.625,0.5625,-0.6933594,0.04833984,0.7915039,0.2724609,0.293457,-0.4824219
1541,-0.1875,0.8125,0.0625,-0.6542969,0.02490234,0.7836914,0.2724609,0.293457,-0.4824219
1544,0,0.6875,0.5,-0.6738281,0.01318359,0.7875977,0.2636719,0.2993164,-0.5048828
1547,-0.375,0.375,0.0625,-0.6660156,0.03662109,0.7836914,0.2636719,0.2993164,-0.5048828
1550,-0.75,0.0625,0.25,-0.6816406,0.03662109,0.7758789,0.2807617,0.2963867,-0.4848633
1553,-0.8125,-0.4375,0.125,-0.6933594,0.02490234,0.7719727,0.2807617,0.2963867,-0.4848633
1556,-1.1875,-1.4375,0,-0.6699219,0.01318359,0.7836914,0.2749023,0.2993164,-0.4936523
1559,-2,-1.8125,-0.125,-0.6972656,0.02490234,0.7949219,0.2695313,0.2963867,-0.4794922
1562,-2.25,-1.8125,-0.3125,-0.6816406,0.009277344,0.7915039,0.2695313,0.2963867,-0.4794922
1565,-1.6875,-1.5,-0.125,-0.7050781,0.01708984,0.7758789,0.2578125,0.3046875,-0.4765625
1568,-1.6875,-2,-0.0625,-0.6738281,0.009277344,0.7719727,0.2578125,0.3046875,-0.4765625
1571,-1.6875,-2,0.0625,-0.6621094,0.01708984,0.7949219,0.2636719,0.2963867,-0.4936523
1574,-0.6875,-1.3125,1.25,-0.6699219,0.03662109,0.7680664,0.2636719,0.3017578,-0.4824219
1577,-0.6875,-1.375,1.5,-0.6660156,-0.001953125,0.7797852,0.2636719,0.3017578,-0.4824219
1580,-0.5,-1.8125,1.8125,-0.6464844,0.01318359,0.7568359,0.2607422,0.2910156,-0.4824219
1583,0.0625,-1.5,2,-0.6816406,0.01708984,0.7949219,0.2607422,0.2910156,-0.4824219
1586,0.875,-1,1.625,-0.6582031,0.05224609,0.7680664,0.2666016,0.3017578,-0.4848633
1589,0.5625,-0.3125,1.75,-0.6738281,0.02099609,0.7915039,0.2666016,0.3017578,-0.4848633
1592,0.0625,-0.875,1.5625,-0.6621094,-0.01367188,0.7719727,0.2724609,0.3017578,-0.4907227
1595,0.375,-0.875,0.875,-0.6855469,0.02880859,0.7641602,0.2724609,0.3017578,-0.496582
1598,-0.3125,-1.75,0,-0.7089844,0.04052734,0.7875977,0.2724609,0.3017578,-0.496582
1601,-0.625,-2.125,-0.75,-0.6699219,0.03662109,0.8334961,0.2724609,0.3017578,-0.496582
1604,-0.5625,-2.5625,-1.375,-0.6933594,0.01708984,0.8183594,0.2724609,0.3017578,-0.496582
1607,-0.125,-3.5,-0.75,-0.6582031,-0.009765625,0.7949219,0.2666016,0.293457,-0.487793
1610,0,-5.1875,-0.5625,-0.6816406,-0.001953125,0.7875977,0.2666016,0.3046875,-0.4824219
1613,0.5,-5.0625,1,-0.6660156,0.03662109,0.7949219,0.2666016,0.3046875,-0.4824219
1616,1.0625,-5.625,2.125,-0.6816406,-0.001953125,0.7568359,0.2695313,0.2880859,-0.4765625
1619,1.0625,-8.0625,3,-0.6503906,0.03662109,0.7490234,0.2695313,0.2880859,-0.4765625
1622,0.875,-6.25,2.1875,-0.6660156,0.03662109,0.8105469,0.2695313,0.2993164,-0.4794922
1625,-0.0625,-5.1875,-0.375,-0.6699219,0.07177734,0.7988281,0.2695313,0.2993164,-0.4794922
1628,0.75,-3.3125,-1.8125,-0.6933594,0.04443359,0.7915039,0.2636719,0.3017578,-0.496582
1631,0.5625,-2.6875,-2.125,-0.6777344,0.02490234,0.8066406,0.2636719,0.3017578,-0.496582
1634,0.25,-2.375,-1.875,-0.6816406,0.02490234,0.7797852,0.2636719,0.3017578,-0.496582
1637,0,-3,-0.6875,-0.6542969,0.009277344,0.7988281,0.2524414,0.3017578,-0.4848633
1640,-0.625,-1.4375,-0.125,-0.6542969,0.03271484,0.7988281,0.2524414,0.3017578,-0.4848633
1643,-0.1875,0.75,-0.25,-0.6582031,0.03662109,0.8334961,0.2636719,0.2993164,-0.4907227
1646,-0.25,1.75,-1,-0.6972656,0.07568359,0.8027344,0.2666016,0.2993164,-0.4848633
1649,-0.6875,3.1875,-3.3125,-0.7089844,0.03662109,0.7915039,0.2666016,0.2993164,-0.4848633
1652,-1.5,2,-3,-0.6855469,0.05224609,0.8105469,0.2607422,0.2910156,-0.487793
1655,-2.375,1.0625,-3.9375,-0.6777344,0.01708984,0.7875977,0.2607422,0.2910156,-0.487793
1658,-2.375,0.625,-3.625,-0.6855469,0.02099609,0.7875977,0.2636719,0.2993164,-0.4907227
1661,-2.25,-0.25,-3.125,-0.6503906,0.001464844,0.7797852,0.2636719,0.2993164,-0.4907227
1664,-1.25,-0.25,-2.5,-0.6230469,-0.001953125,0.7949219,0.2636719,0.2993164,-0.4907227
1667,-1.4375,-0.875,-2,-0.6582031,0.01318359,0.7915039,0.2724609,0.3076172,-0.4824219
1670,-2.6875,-1.25,-1.875,-0.6230469,0.005371094,0.7949219,0.2724609,0.3076172,-0.4824219
1673,-3.0625,-1.8125,-1.5,-0.6542969,0.01318359,0.7451172,0.2553711,0.3017578,-0.4848633
1676,-2.75,-1.5625,-2.1875,-0.6621094,0.02099609,0.8027344,0.2553711,0.3017578,-0.4848633
1679,-2.5625,0.0625,-2.8125,-0.6425781,0.01708984,0.8491211,0.2666016,0.2993164,-0.487793
1682,-1.875,1.875,-3.5,-0.6660156,0.04052734,0.8105469,0.2607422,0.3046875,-0.4824219
1685,-3.6875,3.1875,-3.625,-0.6777344,0.04052734,0.8222656,0.2607422,0.3046875,-0.4824219
1688,-3.9375,3.25,-5.625,-0.6972656,0.04833984,0.8374023,0.2636719,0.2963867,-0.4765625
1691,-1.8125,3.1875,-5.5625,-0.6933594,0.02880859,0.7949219,0.2636719,0.2963867,-0.4765625
1694,-1.75,2.875,-5,-0.7011719,0.02880859,0.8066406,0.2636719,0.2963867,-0.4765625
1697,-1.625,1.9375,-3.375,-0.7089844,0.01708984,0.8105469,0.2607422,0.3017578,-0.4848633
1700,-3.25,1.375,-3.875,-0.6660156,0.02099609,0.7299805,0.2607422,0.3017578,-0.4848633
1703,-1,1.25,-3.0625,-0.6894531,0.02880859,0.7758789,0.2636719,0.2993164,-0.4907227
1706,0,1.125,-1.625,-0.6621094,-0.02539063,0.7836914,0.2636719,0.2993164,-0.4907227
1709,-1.625,-0.625,-0.75,-0.6582031,0.03271484,0.7797852,0.2636719,0.3076172,-0.4824219
1712,-1.5625,-1.5,-0.9375,-0.6503906,0.02099609,0.7719727,0.2636719,0.3076172,-0.4824219
1715,-0.9375,-1.5,-1.6875,-0.6582031,0.01708984,0.8027344,0.2666016,0.3017578,-0.4907227
1718,-1.125,-1.125,-2.875,-0.6503906,0.03662109,0.8027344,0.2636719,0.3100586,-0.4936523
1721,-1.5,-1.0625,-3,-0.6738281,0.03662109,0.7719727,0.2636719,0.3100586,-0.4936523
1724,-1.8125,0.9375,-3.5625,-0.6582031,0.02490234,0.8491211,0.2578125,0.3017578,-0.4824219
1727,-2.5,3.4375,-3.4375,-0.6582031,0.001464844,0.7949219,0.2578125,0.3017578,-0.4824219
1730,-1.625,4.9375,-3.6875,-0.6542969,0.005371094,0.7797852,0.2666016,0.3046875,-0.4794922
1733,-1.5625,5.5625,-4.875,-0.6621094,0.03271484,0.8183594,0.2578125,0.293457,-0.487793
1736,-1.8125,5.75,-5.0625,-0.6816406,0.01708984,0.8256836,0.2578125,0.293457,-0.487793
1739,-3.75,6,-5.5,-0.6894531,0.001464844,0.7797852,0.2578125,0.3017578,-0.4907227
1742,-5.5625,4.4375,-4.625,-0.6855469,-0.005859375,0.8027344,0.2578125,0.3017578,-0.4907227
1745,-4.5625,3.5625,-3.625,-0.6660156,-0.001953125,0.7836914,0.2724609,0.3046875,-0.487793
1748,-2.25,5.1875,-3.25,-0.6738281,0.005371094,0.7836914,0.2724609,0.3046875,-0.487793
1751,-1.125,4.9375,-1.6875,-0.6816406,-0.009765625,0.7641602,0.2666016,0.3046875,-0.4765625
1754,-2.125,5.75,-0.25,-0.6933594,0.009277344,0.8603516,0.2578125,0.3076172,-0.4794922
1757,-1.6875,2,0,-0.7089844,-0.005859375,0.7568359,0.2578125,0.3076172,-0.4794922
1760,-3.1875,0.0625,0.375,-0.6816406,0.005371094,0.7568359,0.2695313,0.3076172,-0.4936523
1763,-3.125,0.625,-1,-0.6855469,-0.009765625,0.7797852,0.2695313,0.3076172,-0.4936523
1766,-4.0625,0,-2.0625,-0.6386719,0.001464844,0.7797852,0.2666016,0.3017578,-0.4824219
1769,-4.625,1.125,-3.1875,-0.6503906,-0.001953125,0.8222656,0.2636719,0.3046875,-0.4848633
1772,-4.9375,3.75,-3.3125,-0.6503906,-0.02148438,0.7568359,0.2636719,0.3046875,-0.4848633
1775,-5.375,1.75,-4.1875,-0.6660156,-0.009765625,0.7719727,0.2695313,0.3046875,-0.487793
1778,-5.75,1.875,-3.375,-0.6621094,-0.02148438,0.7875977,0.2695313,0.3046875,-0.487793
1781,-1.75,3.75,-5.1875,-0.6347656,0.02490234,0.8491211,0.2695313,0.2993164,-0.4936523
1784,4.0625,17.3125,-16.25,-0.7636719,0.09472656,0.7988281,0.2695313,0.2993164,-0.4936523
1787,5.8125,12.75,-17.1875,-0.8100586,0.1650391,0.6645508,0.2666016,0.3100586,-0.4848633
1790,-3.6875,14,-24.6875,-0.6582031,0.1298828,0.8491211,0.2695313,0.2963867,-0.4824219
1793,-12.75,26.5625,-41.6875,-0.7089844,0.02880859,0.7490234,0.2695313,0.2963867,-0.4824219
1796,-14.5625,19.25,-44,-0.7983398,0.03662109,0.5107422,0.2724609,0.2993164,-0.4848633
1799,-15.9375,-1.75,-45.5,-0.7792969,0.01708984,0.5107422,0.2724609,0.2993164,-0.4848633
1802,-15.3125,-15.125,-46.375,-0.7753906,0.005371094,0.6069336,0.2636719,0.3046875,-0.4936523
1805,-16.875,-22.4375,-54.0625,-0.7597656,-0.009765625,0.668457,0.2666016,0.3076172,-0.4907227
1808,-14.0625,-23.875,-51.9375,-0.7480469,-0.06054688,0.7104492,0.2666016,0.3076172,-0.4907227
1811,-18.0625,-30.75,-54.875,-0.7011719,-0.03320313,0.5146484,0.2695313,0.315918,-0.4824219
1814,-13.0625,-29.625,-37,-0.9272461,-0.3100586,0.9682617,0.2695313,0.315918,-0.4824219
1817,-9.3125,-24.875,-35.0625,-0.6777344,0.001464844,0.7299805,0.2524414,0.3129883,-0.4824219
1820,-18.5625,-26,-44.5625,-0.6816406,-0.03320313,0.7412109,0.2578125,0.3242188,-0.496582
1823,-21.8125,-26.0625,-47.8125,-0.6347656,-0.001953125,0.7836914,0.2578125,0.3242188,-0.496582
1826,-7.1875,-13.8125,-47.5625,-0.6386719,-0.04101563,0.887207,0.2436523,0.3266602,-0.4824219
1829,-0.625,1.8125,-48.5625,-0.6191406,-0.03710938,1.010254,0.2436523,0.3266602,-0.4824219
1832,11.9375,15.1875,-52.1875,-0.6816406,0.001464844,1.010254,0.2524414,0.3325195,-0.4907227
1835,13.5,16.125,-53.3125,-0.7285156,-0.1269531,0.8798828,0.2524414,0.3325195,-0.4907227
1838,21.375,15.625,-52.0625,-0.7480469,0.01708984,0.8374023,0.246582,0.3325195,-0.4848633
1841,34.25,19.375,-59.0625,-0.6660156,0.03662109,0.8530273,0.2436523,0.3183594,-0.487793
1844,40.6875,25.4375,-70,-0.6972656,0.08300781,0.887207,0.2436523,0.3183594,-0.487793
1847,37.1875,27.6875,-79.8125,-0.7402344,0.01318359,0.8603516,0.246582,0.3183594,-0.4794922
1850,39.5,31.125,-84.375,-0.6464844,0.07177734,0.8837891,0.246582,0.3183594,-0.4794922
1853,12.5625,30.9375,-102.5,-0.5527344,-0.1347656,0.9833984,0.2407227,0.3266602,-0.4794922
1856,-14.0625,36.8125,-91.625,-0.5800781,-0.1894531,0.8066406,0.2524414,0.3183594,-0.4848633
1859,-24.8125,24.9375,-80.5,-0.5761719,-0.2441406,0.5146484,0.2524414,0.3183594,-0.4848633
1862,-26.5,4.875,-60.625,-0.6074219,-0.3686523,0.5874023,0.2524414,0.3242188,-0.4765625
1865,-20.375,-5.4375,-38.1875,-0.6152344,-0.2944336,0.6489258,0.2524414,0.3242188,-0.4765625
1868,-15.6875,-14.375,-26.375,-0.6464844,-0.2128906,0.7299805,0.246582,0.3325195,-0.4907227
1871,-9.625,-12.25,-24.8125,-0.6503906,-0.02929688,0.8413086,0.246582,0.3325195,-0.4907227
1874,-7.5625,-2.8125,-35.4375,-0.6816406,0.06005859,0.8720703,0.2553711,0.3295898,-0.4707031
1877,-4.125,8.5625,-43.5,-0.7866211,0.1259766,0.8989258,0.2436523,0.3325195,-0.4794922
1880,-0.375,14.6875,-70,-0.7167969,0.04833984,0.887207,0.2436523,0.3325195,-0.4794922
1883,9.9375,21.1875,-80.4375,-0.7089844,-0.07617188,0.8564453,0.2436523,0.3325195,-0.4794922
1886,19.5625,27.4375,-79,-0.7285156,-0.2246094,0.7412109,0.2436523,0.3325195,-0.4794922
1889,24.9375,22.5,-66.4375,-0.7246094,-0.3413086,0.6069336,0.2407227,0.3354492,-0.4736328
1892,30,17.125,-43.4375,-0.6777344,-0.3764648,0.706543,0.2495117,0.3266602,-0.487793
1895,45.1875,19.875,-23.875,-0.6230469,-0.3217773,0.671875,0.2495117,0.3266602,-0.487793
1898,57.625,22.1875,-12.875,-0.5957031,-0.2514648,0.6875,0.2407227,0.3266602,-0.487793
1901,66.5,25.5,-9.6875,-0.6191406,-0.1582031,0.7568359,0.2407227,0.3266602,-0.487793
1904,65.625,25.0625,-11.1875,-0.6308594,-0.1191406,0.7915039,0.246582,0.3266602,-0.4794922
1907,59.75,25.0625,-14.5625,-0.6425781,-0.1621094,0.7719727,0.246582,0.3266602,-0.4794922
1910,51.25,29.25,-19.6875,-0.6425781,-0.1660156,0.8564453,0.246582,0.3076172,-0.4848633
1913,35.3125,37.25,-29.875,-0.6503906,-0.04101563,0.8720703,0.246582,0.3076172,-0.4848633
1916,23,42.75,-44.9375,-0.6933594,-0.001953125,0.7412109,0.246582,0.3076172,-0.4848633
1919,13.8125,45.625,-59.6875,-0.6933594,0.01318359,0.8144531,0.246582,0.3046875,-0.4848633
1922,6,49.5625,-72.125,-0.7207031,0.01708984,0.7568359,0.246582,0.3046875,-0.4848633
1925,-5.875,53.0625,-84.875,-0.6933594,0.001464844,0.7758789,0.2524414,0.3017578,-0.4936523
1928,-16.125,53.375,-91.8125,-0.7246094,-0.04492188,0.6992188,0.2578125,0.3017578,-0.4794922
1931,-22.125,46,-89.0625,-0.7167969,-0.1972656,0.6298828,0.2578125,0.3017578,-0.4794922
1934,-24.3125,31.5625,-78.1875,-0.7011719,-0.3374023,0.6181641,0.2636719,0.3046875,-0.4907227
1937,-14.0625,17.8125,-61.875,-0.6972656,-0.4038086,0.6069336,0.2636719,0.3046875,-0.4907227
1940,-11.5,2.75,-47.6875,-0.6660156,-0.3295898,0.6337891,0.2578125,0.3212891,-0.4765625
1943,-7.125,-3.5625,-41,-0.7089844,-0.2514648,0.7529297,0.2578125,0.3212891,-0.4765625
1946,6.625,3.875,-35.9375,-0.6660156,-0.2207031,0.8491211,0.2578125,0.3212891,-0.4765625
1949,11.625,10.9375,-35.8125,-0.6855469,-0.2402344,0.7949219,0.2495117,0.3266602,-0.487793
1952,8.5,13.5625,-33.25,-0.6855469,-0.2207031,0.7915039,0.2495117,0.3266602,-0.487793
1955,-0.5625,9.3125,-45.8125,-0.7089844,-0.1191406,0.8183594,0.2607422,0.3076172,-0.487793
1958,-8.1875,14.875,-52.5625,-0.6816406,-0.1464844,0.8144531,0.2607422,0.3076172,-0.487793
1961,-13.375,26.9375,-58.3125,-0.6347656,-0.1738281,0.7568359,0.2607422,0.3266602,-0.4794922
1964,-19.6875,35.9375,-62.375,-0.6855469,-0.2441406,0.7915039,0.2553711,0.3183594,-0.496582
1967,-2.625,46.8125,-62.0625,-0.7167969,-0.1777344,0.6376953,0.2553711,0.3183594,-0.496582
1970,-8.3125,18.8125,-75.1875,-0.4711914,-0.1074219,0.2490234,0.2578125,0.3183594,-0.4824219
1973,-75.8125,12.5,-96.125,-0.6464844,-0.6025391,1.156738,0.2578125,0.3183594,-0.4824219
1976,28.6875,69.8125,-56.4375,-1.141602,0.3447266,0.956543,0.2578125,0.3183594,-0.4824219
1979,51.1875,68.5,-77.0625,-0.4750977,0.2587891,0.7299805,0.2636719,0.3354492,-0.4794922
1982,40,57.6875,-98.6875,-0.6777344,-0.5366211,0.6567383,0.2636719,0.3354492,-0.4794922
1985,17.6875,42.0625,-65.9375,-0.7519531,-0.5405273,0.5761719,0.2636719,0.3378906,-0.4707031
1988,11.75,25,-44.875,-0.6621094,-0.4233398,0.652832,0.2636719,0.3378906,-0.4707031
1991,7.875,24.5625,-41.1875,-0.7167969,-0.3608398,0.8222656,0.277832,0.3378906,-0.4794922
1994,3.9375,29.125,-40.8125,-0.6972656,-0.2983398,0.7875977,0.277832,0.3378906,-0.4794922
1997,-4.9375,27.6875,-43.5625,-0.7011719,-0.3217773,0.7299805,0.2666016,0.3354492,-0.4824219
2000,-8.5625,28.9375,-42.6875,-0.7167969,-0.2866211,0.7490234,0.2836914,0.3266602,-0.4824219
2003,-16.125,27.5,-41.375,-0.7558594,-0.2905273,0.6645508,0.2836914,0.3266602,-0.4824219
2006,-9.3125,30.4375,-40.5,-0.7558594,-0.3608398,0.6796875,0.2724609,0.3295898,-0.4765625
2009,-9.625,30.3125,-34.625,-0.7558594,-0.3569336,0.6450195,0.2724609,0.3295898,-0.4765625
2012,-15.6875,42.875,-33.5625,-0.8295898,-0.3374023,0.8950195,0.2749023,0.3354492,-0.4765625
2015,-18.375,68.25,-34.25,-0.6503906,-0.2905273,0.8564453,0.2695313,0.3354492,-0.4677734
2018,3.5,79.5,-34.6875,-0.7050781,-0.2749023,0.7568359,0.2695313,0.3354492,-0.4677734
2021,1.1875,102.3125,-28.6875,-0.7167969,-0.3178711,0.6992188,0.3037109,0.3354492,-0.4794922
2024,1.875,110.6875,-25.25,-0.6660156,-0.3374023,0.5722656,0.3037109,0.3354492,-0.4794922
2027,1.75,107.0625,-30.75,-0.6777344,-0.5131836,0.4990234,0.2949219,0.3408203,-0.4707031
2030,-0.3125,103.125,-30.375,-0.7128906,-0.2983398,0.5068359,0.2949219,0.3408203,-0.4707031
2033,-9,94.625,-42,-0.6660156,-0.4116211,0.4682617,0.3149414,0.3408203,-0.4707031
2036,-28.0625,76.6875,-38.75,-0.6855469,-0.4389648,0.4912109,0.3120117,0.3461914,-0.456543
2039,-37.6875,66.125,-37.125,-0.6464844,-0.4506836,0.6489258,0.3120117,0.3461914,-0.456543
2042,-36.9375,67.8125,-37.25,-0.6425781,-0.4038086,0.7104492,0.3095703,0.3461914,-0.4624023
2045,-26.3125,68.8125,-37.6875,-0.6503906,-0.3920898,0.5527344,0.3095703,0.3461914,-0.4624023
2048,-31.5,68.8125,-43.5,-0.7167969,-0.3881836,0.4335938,0.3320313,0.3544922,-0.456543
2051,-93.625,65.6875,-48.625,-0.6855469,-0.5561523,0.5068359,0.3349609,0.3520508,-0.4511719
2054,-86.875,60.9375,-65.125,-0.5097656,-0.3608398,0.4682617,0.3349609,0.3520508,-0.4511719
2057,-85.25,65.625,-85.5,-0.4282227,-0.4350586,0.6142578,0.3466797,0.3686523,-0.4365234
2060,-81.125,151.375,-102.0625,-0.4360352,-0.4975586,0.456543,0.3466797,0.3686523,-0.4365234
2063,-89.625,183.1875,-112.8125,-0.3188477,-0.5249023,0.4492188,0.3491211,0.3823242,-0.4423828
2066,-83.5625,229.625,-152.375,-0.4868164,-0.5639648,0.3491211,0.3491211,0.3823242,-0.4423828
2069,-112.9375,236.625,-189.9375,-0.6503906,-0.6767578,0.3452148,0.3608398,0.4072266,-0.4082031
2072,-121.9375,208.25,-217.5625,-0.6933594,-0.7431641,0.05664063,0.375,0.4213867,-0.3999023
2075,-109.625,152,-228.25,-0.6777344,-0.6142578,0.006835938,0.375,0.4213867,-0.3999023
2078,-102.625,126.4375,-237.0625,-0.7285156,-0.4702148,-0.004394531,0.3779297,0.4296875,-0.3828125
2081,-142.9375,114.3125,-231.8125,-0.9624023,-0.5405273,-0.07714844,0.3779297,0.4296875,-0.3828125
2084,-167.4375,93.5,-208.9375,-0.9819336,-0.5986328,-0.03857422,0.3833008,0.4575195,-0.3857422
2087,-164.0625,66.9375,-184.3125,-0.9663086,-0.6806641,0.1567383,0.3691406,0.4794922,-0.362793
2090,-135.125,51.125,-159.625,-0.9194336,-0.8056641,0.3569336,0.3691406,0.4794922,-0.362793
2093,-91.4375,50.3125,-129,-1.044434,-0.9150391,0.4912109,0.3662109,0.4960938,-0.3486328
2096,-35.5,63.0625,-85.875,-1.052246,-0.8603516,0.6181641,0.3662109,0.4960938,-0.3486328
2099,29.125,75.0625,-46.5,-1.083008,-0.7666016,0.6220703,0.3579102,0.5073242,-0.3398438
2102,79.625,82.3125,-27.4375,-1.063965,-0.6572266,0.5107422,0.3579102,0.5073242,-0.3427734
2105,86.5625,97.875,-24.375,-1.044434,-0.5522461,0.3681641,0.3579102,0.5073242,-0.3427734
2108,73.5,118,-26.625,-0.9741211,-0.5639648,0.3105469,0.3637695,0.5073242,-0.3486328
2111,54.4375,138.5,-34.0625,-0.8842773,-0.5327148,0.2607422,0.3637695,0.5073242,-0.3486328
2114,45.625,143.625,-42.0625,-0.8295898,-0.5522461,0.1376953,0.375,0.4960938,-0.3457031
2117,45.9375,133.375,-45.875,-0.8295898,-0.5678711,0.08007813,0.375,0.4960938,-0.3457031
2120,40.5625,122.75,-45.75,-0.8959961,-0.5869141,0.1069336,0.3862305,0.4990234,-0.3427734
2123,43.5625,115.0625,-41.625,-0.8334961,-0.5908203,0.1953125,0.3779297,0.4990234,-0.3232422
2126,49.4375,98,-39.375,-0.7792969,-0.6142578,0.1181641,0.3779297,0.4990234,-0.3232422
2129,54.125,79.875,-34.9375,-0.7597656,-0.6142578,0.1416016,0.3891602,0.4907227,-0.3398438
2132,51.5,75.3125,-29.625,-0.7285156,-0.6259766,0.2070313,0.3891602,0.4907227,-0.3398438
2135,44,79.6875,-22.5625,-0.7597656,-0.6650391,0.1953125,0.3950195,0.4931641,-0.331543
2138,37.6875,87.875,-16.625,-0.7480469,-0.6845703,0.2529297,0.40625,0.4848633,-0.3344727
2141,36.375,110,-11.8125,-0.7866211,-0.7275391,0.2954102,0.40625,0.4848633,-0.3344727
2144,42.0625,135.625,-10.8125,-0.7441406,-0.6923828,0.2070313,0.3950195,0.4824219,-0.331543
2147,39.5625,149.5,-18.0625,-0.8452148,-0.7353516,0.08398438,0.3950195,0.4824219,-0.331543
2150,31.1875,156.125,-28.5,-0.8842773,-0.6767578,0.1108398,0.4204102,0.4824219,-0.3203125
2153,43.1875,163.8125,-37.625,-0.8139648,-0.6025391,0.1796875,0.4204102,0.4824219,-0.3203125
2156,45.5625,179.875,-45.875,-0.7636719,-0.6728516,0.08007813,0.4233398,0.487793,-0.3203125
2159,47.5625,186.9375,-46,-0.8334961,-0.7587891,-0.02734375,0.4404297,0.4907227,-0.3203125
2162,48.75,180.0625,-38.4375,-0.7402344,-0.7548828,-0.1040039,0.4404297,0.4907227,-0.3203125
2165,49.875,164.1875,-30.25,-0.6230469,-0.7783203,-0.07714844,0.4404297,0.4907227,-0.3203125
2168,51.3125,145.25,-23.9375,-0.5136719,-0.7158203,-0.03515625,0.4404297,0.4907227,-0.3203125
2171,48.9375,116.4375,-29.6875,-0.3110352,-0.5522461,-0.2041016,0.4462891,0.4848633,-0.2944336
2174,33.75,73.3125,-33.6875,-0.4399414,-0.7470703,0.07617188,0.4550781,0.4848633,-0.2915039
2177,25.3125,72.375,-24.3125,-0.5332031,-0.6611328,0.1796875,0.4550781,0.4848633,-0.2915039
2180,32.0625,64.8125,-25.4375,-0.6152344,-0.6689453,0.09130859,0.4492188,0.4711914,-0.3061523
2183,39.875,51.1875,-29,-0.6816406,-0.7001953,0.06054688,0.4492188,0.4711914,-0.3061523
2186,38.8125,29.875,-26.25,-0.7207031,-0.7119141,0.03369141,0.4550781,0.4848633,-0.2973633
2189,48.4375,19.75,-34,-0.8022461,-0.7470703,-0.015625,0.4550781,0.4848633,-0.2973633
2192,40.375,7.4375,-37.9375,-0.7480469,-0.6962891,0.01855469,0.4604492,0.4741211,-0.2973633
2195,49.125,8.5,-46.875,-0.7636719,-0.7548828,-0.04638672,0.4604492,0.4741211,-0.2973633
2198,24.5,-0.5625,-33.375,-0.7753906,-0.7470703,-0.0234375,0.4604492,0.4741211,-0.2973633
2201,7.3125,-0.625,-31.0625,-0.7207031,-0.7509766,0.03369141,0.4575195,0.4824219,-0.2944336
2204,9.5,0.9375,-30.4375,-0.6738281,-0.7978516,0.1914063,0.4575195,0.4824219,-0.2944336
2207,25.875,10.4375,-27.875,-0.6972656,-0.8134766,0.06054688,0.4492188,0.4848633,-0.3115234
2210,28.375,11.75,-28.5625,-0.7128906,-0.7548828,0.006835938,0.4521484,0.4765625,-0.3061523
2213,32.125,13.125,-27.875,-0.7324219,-0.7236328,0.02246094,0.4521484,0.4765625,-0.3061523
2216,45.3125,19.5,-29.5,-0.6855469,-0.7314453,0.04931641,0.4492188,0.4794922,-0.300293
2219,54.0625,22.6875,-39.5625,-0.7207031,-0.6376953,0.05322266,0.4492188,0.4794922,-0.300293
2222,55.375,27.875,-60,-0.7519531,-0.7158203,0.04541016,0.4462891,0.4711914,-0.3032227
2225,43.25,21.0625,-63.0625,-0.6191406,-0.7587891,0.1108398,0.4462891,0.4711914,-0.3032227
2228,46.125,19.0625,-72.5625,-0.5957031,-0.8525391,0.1416016,0.4462891,0.4711914,-0.3032227
2231,43.8125,32.5625,-76.75,-0.6152344,-0.8603516,0.1489258,0.4404297,0.4765625,-0.3085938
2234,45.0625,44.6875,-79.25,-0.7011719,-0.8486328,0.09912109,0.4404297,0.4765625,-0.3085938
2237,43.4375,45.8125,-78.375,-0.7050781,-0.8212891,0.01855469,0.4433594,0.4824219,-0.3061523
2240,43.8125,44.875,-81.8125,-0.6738281,-0.7705078,0.1069336,0.4433594,0.4824219,-0.3061523
2243,47.8125,47.5,-91.25,-0.6894531,-0.7861328,0.1416016,0.4433594,0.4824219,-0.3115234
2246,50.5625,44.5,-94.875,-0.6503906,-0.8251953,0.1376953,0.4233398,0.4907227,-0.3085938
2249,60.25,37.625,-98,-0.5957031,-0.8251953,0.152832,0.4233398,0.4907227,-0.3085938
2252,73.625,33.5,-100.0625,-0.5488281,-0.8134766,0.1220703,0.4233398,0.4848633,-0.3144531
2255,87.5,32.6875,-99.875,-0.5566406,-0.8369141,0.1220703,0.4233398,0.4848633,-0.3144531
2258,104.75,35.125,-97.6875,-0.4985352,-0.7978516,0.07617188,0.4233398,0.4848633,-0.3144531
2261,123.75,36.3125,-94.4375,-0.4672852,-0.8369141,0.08398438,0.4204102,0.4931641,-0.3144531
2264,125.875,41,-84.0625,-0.4399414,-0.8212891,0.1567383,0.4204102,0.4931641,-0.3144531
2267,129.1875,51.4375,-76.6875,-0.3735352,-0.8095703,0.1796875,0.4233398,0.487793,-0.3344727
2270,121.625,57.375,-71.5,-0.4008789,-0.7939453,0.2260742,0.4233398,0.487793,-0.3344727
2273,112.625,68.9375,-66,-0.4047852,-0.8173828,0.2758789,0.4121094,0.4794922,-0.3286133
2276,102.5625,86.3125,-61.0625,-0.4750977,-0.8681641,0.2915039,0.4121094,0.4794922,-0.3286133
2279,86.3125,96.3125,-62.4375,-0.5097656,-0.8603516,0.2797852,0.4091797,0.4628906,-0.3427734
2282,72.75,86.25,-72.1875,-0.4868164,-0.8525391,0.222168,0.4321289,0.4682617,-0.3427734
2285,67.0625,70.375,-85.375,-0.4790039,-0.8603516,0.3413086,0.4321289,0.4682617,-0.3427734
2288,62.6875,70.75,-92.25,-0.4438477,-0.8955078,0.4296875,0.4204102,0.4765625,-0.3427734
2291,57.25,82.75,-88.875,-0.3969727,-0.9379883,0.4799805,0.4204102,0.4765625,-0.3427734
2294,49.375,92.6875,-82.1875,-0.3344727,-0.9150391,0.4643555,0.4233398,0.4711914,-0.3427734
2297,37.9375,90.625,-80.25,-0.3110352,-0.8369141,0.3491211,0.4204102,0.4741211,-0.3374023
2300,28.375,78.125,-83.75,-0.2758789,-0.8759766,0.3374023,0.4204102,0.4741211,-0.3374023
2303,22.875,70.5,-81.3125,-0.2954102,-0.9111328,0.3720703,0.4233398,0.4682617,-0.3398438
2306,22.1875,73.625,-73.9375,-0.2138672,-0.8642578,0.4414063,0.4233398,0.4682617,-0.3398438
2309,24.625,78,-74.0625,-0.1474609,-0.8642578,0.2797852,0.4150391,0.4824219,-0.3374023
2312,15.8125,68.75,-64.3125,-0.2485352,-0.8095703,0.2299805,0.4150391,0.4824219,-0.3374023
2315,21.0625,58.5,-57.375,-0.3500977,-0.6025391,0.05664063,0.4091797,0.4741211,-0.3374023
2318,20.6875,49,-57.625,-0.3305664,-0.8486328,0.1220703,0.4204102,0.4682617,-0.3232422
2321,19.125,42.8125,-58.3125,-0.3852539,-0.8525391,0.1645508,0.4204102,0.4682617,-0.3232422
2324,22.0625,41.75,-59.75,-0.4438477,-0.8720703,0.1875,0.4150391,0.4794922,-0.3374023
2327,28.625,46.375,-57.25,-0.4008789,-0.918457,0.2758789,0.4150391,0.4794922,-0.3374023
2330,30.875,57.125,-51.9375,-0.3266602,-0.9262695,0.3950195,0.4204102,0.4824219,-0.331543
2333,25.875,56.0625,-46.1875,-0.1474609,-0.8603516,0.4873047,0.4179688,0.4741211,-0.331543
2336,10.125,44.25,-46.75,-0.1669922,-0.8486328,0.5219727,0.4179688,0.4741211,-0.331543
2339,-7,35.5,-44.125,-0.2172852,-0.8876953,0.5644531,0.4204102,0.4907227,-0.3256836
2342,-12.25,35.1875,-35.1875,-0.2329102,-0.8876953,0.5107422,0.4204102,0.4907227,-0.3256836
2345,-10.125,34.125,-26.6875,-0.2329102,-0.8955078,0.3413086,0.4179688,0.487793,-0.3173828
2348,-8.75,24.0625,-24.875,-0.1904297,-0.8994141,0.2685547,0.4179688,0.487793,-0.3173828
2351,-3.3125,20.125,-21.5625,-0.1943359,-0.8720703,0.2915039,0.4179688,0.4907227,-0.3173828
2354,1.0625,19.4375,-19.625,-0.2524414,-0.8837891,0.1875,0.4150391,0.4990234,-0.3144531
2357,4.125,16.4375,-20.5625,-0.3422852,-0.9379883,0.1914063,0.4150391,0.4990234,-0.3144531
2360,3.25,17.625,-22.4375,-0.3969727,-0.9692383,0.2260742,0.40625,0.4931641,-0.3173828
2363,5.75,19.375,-23.5,-0.4204102,-0.9731445,0.1914063,0.40625,0.4931641,-0.3173828
2366,1.125,20.625,-26.375,-0.3813477,-0.9848633,0.2104492,0.4204102,0.4931641,-0.3085938
2369,-1.8125,25,-25.8125,-0.3422852,-0.9887695,0.2607422,0.4150391,0.487793,-0.3085938
2372,-6.8125,34.5625,-21.875,-0.2875977,-0.9458008,0.2607422,0.4150391,0.487793,-0.3085938
2375,-8.1875,40,-14.5625,-0.2719727,-0.8916016,0.203125,0.4233398,0.4907227,-0.3203125
2378,-7.25,39.9375,-16.25,-0.2836914,-0.9111328,0.1723633,0.4233398,0.4907227,-0.3203125
2381,-8.1875,31.0625,-20.375,-0.2836914,-0.8369141,0.1298828,0.4179688,0.4931641,-0.3203125
2384,-11.5,19.375,-23,-0.2954102,-0.8955078,0.1645508,0.4121094,0.4960938,-0.3085938
2387,-6.5625,15.8125,-19.625,-0.2915039,-0.9072266,0.2915039,0.4121094,0.4960938,-0.3085938
2390,-2.625,16.4375,-15.25,-0.2954102,-0.8994141,0.2993164,0.4233398,0.5073242,-0.3115234
2393,0.75,15.0625,-10.0625,-0.3461914,-0.8876953,0.3261719,0.4233398,0.5073242,-0.3115234
2396,3.125,12.9375,-9.4375,-0.2641602,-0.9111328,0.3105469,0.4321289,0.4960938,-0.3085938
2399,-3.125,5.5,-18.5625,-0.2875977,-0.8994141,0.3027344,0.4321289,0.4960938,-0.3085938
2402,-4.75,4.0625,-20.8125,-0.3071289,-0.8837891,0.2875977,0.4179688,0.4990234,-0.3032227
2405,0.625,6.375,-17,-0.3344727,-0.9614258,0.3027344,0.4233398,0.5073242,-0.3032227
2408,2.9375,7.1875,-14.4375,-0.2836914,-0.8876953,0.2719727,0.4233398,0.5073242,-0.3032227
2411,3.3125,6.875,-19.0625,-0.2060547,-0.9033203,0.2104492,0.4150391,0.4960938,-0.2944336
2414,2.125,3.5,-22.5,-0.2836914,-0.9150391,0.1108398,0.4150391,0.4960938,-0.2944336
2417,5.0625,7.375,-16.625,-0.2250977,-0.8916016,0.1147461,0.4121094,0.5073242,-0.3115234
2420,6.3125,13.875,-7.375,-0.2563477,-0.8916016,0.1645508,0.4121094,0.5073242,-0.3032227
2423,1.875,16.375,-6.75,-0.2485352,-0.9111328,0.203125,0.4121094,0.5073242,-0.3032227
2426,-3.8125,17.8125,-5.8125,-0.2524414,-0.9458008,0.222168,0.4150391,0.5097656,-0.3061523
2429,-10.4375,18.1875,-5.0625,-0.2758789,-0.934082,0.2070313,0.4150391,0.5097656,-0.3061523
2432,-12.5625,14.4375,-5.25,-0.2021484,-0.918457,0.1567383,0.4204102,0.5097656,-0.2973633
2435,-14.625,5.625,-15.0625,-0.2485352,-0.8642578,0.1953125,0.4204102,0.5097656,-0.2973633
2438,-9.875,9.75,-13.125,-0.3305664,-0.9692383,0.237793,0.4121094,0.5126953,-0.3032227
2441,-3.875,9.9375,-9.9375,-0.3618164,-0.9731445,0.222168,0.4091797,0.5073242,-0.2915039
2444,0.0625,3.5,-14.0625,-0.3227539,-0.949707,0.1567383,0.4091797,0.5073242,-0.2915039
2447,1.8125,-0.625,-14.875,-0.3188477,-0.9536133,0.237793,0.4091797,0.5073242,-0.2915039
2450,-2.375,-6.25,-19.8125,-0.2368164,-0.9150391,0.2070313,0.4091797,0.5073242,-0.2915039
2453,-5.875,-6.125,-21.25,-0.2875977,-0.965332,0.2607422,0.4091797,0.5073242,-0.2973633
2456,-5.6875,-3.1875,-17.3125,-0.3266602,-0.980957,0.3261719,0.4204102,0.5097656,-0.300293
2459,-8.3125,0.6875,-15,-0.2407227,-0.8994141,0.237793,0.4204102,0.5097656,-0.300293
2462,-10.4375,1.75,-15.375,-0.2446289,-0.8798828,0.2070313,0.4091797,0.5185547,-0.2973633
2465,-13.375,0,-18,-0.2368164,-0.8876953,0.2104492,0.4091797,0.5185547,-0.2973633
2468,-11.4375,-0.875,-18.25,-0.2993164,-0.9150391,0.2299805,0.4121094,0.5014648,-0.300293
2471,-8.6875,3.5,-16.25,-0.2524414,-0.9262695,0.1723633,0.4121094,0.5014648,-0.300293
2474,-9,4.125,-18.8125,-0.2368164,-0.9301758,0.1762695,0.4121094,0.5209961,-0.2973633
2477,-8.0625,3.625,-18.875,-0.3188477,-0.9614258,0.1914063,0.4121094,0.5209961,-0.2973633
2480,-10,3.9375,-14.625,-0.3500977,-0.9692383,0.2568359,0.4121094,0.5209961,-0.2973633
2483,1.375,8.625,-11.9375,-0.2563477,-0.9731445,0.2070313,0.4033203,0.515625,-0.2890625
2486,-0.5,4.3125,-25.25,-0.1787109,-0.8876953,0.1723633,0.4033203,0.515625,-0.2890625
2489,3.1875,5.4375,-26.4375,-0.2758789,-0.9536133,0.203125,0.4091797,0.5209961,-0.2973633
2492,2.8125,8.5,-27.6875,-0.2250977,-0.918457,0.168457,0.40625,0.515625,-0.2944336
2495,3.9375,9.25,-32,-0.2368164,-0.9379883,0.2070313,0.40625,0.515625,-0.2944336
2498,-1.625,7.5625,-27.5625,-0.2641602,-0.934082,0.168457,0.40625,0.5292969,-0.2944336
2501,-6.5,4.6875,-20.9375,-0.2641602,-0.8759766,0.1030273,0.40625,0.5292969,-0.2944336
2504,-12,-3.6875,-13.8125,-0.2524414,-0.8642578,0.222168,0.40625,0.5209961,-0.2890625
2507,-2.875,-10.9375,-32.25,-0.2368164,-0.8759766,0.203125,0.40625,0.5209961,-0.2890625
2510,1.6875,-17.8125,-42,-0.3305664,-0.8369141,0.1489258,0.40625,0.5209961,-0.2890625
2513,1.6875,-21.375,-45.1875,-0.1826172,-0.9262695,0.2412109,0.3950195,0.5292969,-0.2915039
2516,0.6875,-27,-51.5625,-0.1826172,-0.918457,0.3105469,0.3950195,0.5292969,-0.2915039
2519,5,-20.25,-49.0625,-0.2138672,-0.9575195,0.237793,0.3862305,0.5239258,-0.2915039
2522,5.4375,-25.25,-63.25,-0.07714844,-0.8876953,0.152832,0.3862305,0.5239258,-0.2915039
2525,13.0625,-29.625,-73.0625,-0.1474609,-0.9111328,0.2836914,0.3833008,0.5239258,-0.2915039
2528,15.875,-16.625,-61.75,-0.1748047,-1.039551,0.3300781,0.375,0.5375977,-0.2944336
2531,14.25,-5.375,-56.75,-0.1435547,-0.9770508,0.2529297,0.375,0.5375977,-0.2944336
2534,13.6875,-5,-58.25,-0.1513672,-0.9614258,0.2260742,0.3662109,0.5322266,-0.3061523
2537,13.0625,-2.1875,-55.5,-0.1513672,-0.980957,0.2490234,0.3662109,0.5322266,-0.3061523
2540,12.9375,4.9375,-51.4375,-0.1044922,-0.9614258,0.2299805,0.3662109,0.5322266,-0.3061523
2543,13.4375,8.5625,-54.625,-0.09667969,-0.9072266,0.2875977,0.3549805,0.5458984,-0.300293
2546,15.6875,12.5625,-53,-0.1513672,-0.9770508,0.2182617,0.3549805,0.5458984,-0.300293
2549,16.875,17.9375,-44.8125,-0.04980469,-0.9614258,0.2915039,0.3520508,0.5517578,-0.300293
2552,15.9375,24.125,-42.4375,-0.1123047,-0.949707,0.2182617,0.3520508,0.5517578,-0.300293
2555,20.5,27.1875,-34,-0.1435547,-0.9770508,0.2260742,0.3637695,0.5322266,-0.3085938
2558,15.4375,27.625,-26.75,-0.08886719,-0.9692383,0.1992188,0.3637695,0.5322266,-0.3085938
2561,14.875,23.0625,-24.5,-0.08496094,-0.8876953,0.2260742,0.3520508,0.543457,-0.3061523
2564,1.5625,9.0625,-23.75,-0.1826172,-0.9731445,0.3066406,0.3491211,0.5375977,-0.2915039
2567,7.4375,13.25,-19.125,-0.1279297,-0.9575195,0.3452148,0.3491211,0.5375977,-0.2915039
2570,8.25,18,-9.1875,-0.1552734,-0.996582,0.2915039,0.3491211,0.5375977,-0.2915039
2573,4.3125,10.0625,-8.6875,-0.08496094,-0.8837891,0.152832,0.3491211,0.5375977,-0.2915039
2576,4.125,-2.5625,-23.8125,-0.08496094,-0.9418945,0.1953125,0.3491211,0.5405273,-0.3032227
2579,5.375,-10.6875,-24.125,-0.1396484,-1.062988,0.2797852,0.3520508,0.543457,-0.300293
2582,5.125,-1.9375,-6.8125,-0.08105469,-1.000488,0.2529297,0.3520508,0.543457,-0.300293
2585,-0.4375,-1.5625,-3.375,-0.06933594,-0.965332,0.1875,0.3491211,0.5517578,-0.2944336
2588,-4.1875,-7.8125,-0.625,-0.07714844,-0.9731445,0.2104492,0.3491211,0.5517578,-0.2944336
2591,-8.375,-9.25,2.1875,-0.08496094,-0.9418945,0.1416016,0.3491211,0.5405273,-0.2973633
2594,-11.6875,-12.5625,4.1875,-0.09667969,-0.9033203,0.1762695,0.3491211,0.5405273,-0.2973633
2597,-14.5625,-12.9375,6,-0.09667969,-0.9072266,0.2182617,0.3491211,0.543457,-0.3061523
2600,-16.25,-12.875,5.8125,-0.1083984,-0.8720703,0.237793,0.3491211,0.5375977,-0.2973633
2603,-18.5,-13.375,7.25,-0.06542969,-0.9150391,0.1762695,0.3491211,0.5375977,-0.2973633
2606,-18.5625,-12.125,7.625,-0.1201172,-0.8837891,0.203125,0.3320313,0.5488281,-0.3085938
2609,-18.875,-10.8125,7.375,-0.1123047,-0.9111328,0.2182617,0.3320313,0.5488281,-0.3085938
2612,-19.625,-11,6.625,-0.1279297,-0.8876953,0.222168,0.3320313,0.5488281,-0.3085938
2615,-21,-9.8125,6.875,-0.1162109,-0.9458008,0.237793,0.3466797,0.5405273,-0.2944336
2618,-22.6875,-8.5625,7.625,-0.1083984,-0.9033203,0.2070313,0.3466797,0.5405273,-0.2944336
2621,-22.625,-9.3125,6.1875,-0.1083984,-0.9458008,0.1953125,0.3466797,0.5541992,-0.300293
2624,-23.375,-9.6875,5,-0.07324219,-0.918457,0.1723633,0.3466797,0.5541992,-0.300293
2627,-26.0625,-11.125,6.25,-0.04199219,-0.9614258,0.152832,0.3466797,0.5600586,-0.3032227
2630,-29,-10.1875,7.6875,-0.04199219,-0.9926758,0.1914063,0.3466797,0.5600586,-0.3032227
2633,-30.5625,-5.375,10.3125,-0.05761719,-0.9848633,0.203125,0.3520508,0.543457,-0.300293
2636,-31.3125,-5,11.375,-0.05761719,-0.9458008,0.1835938,0.3491211,0.5517578,-0.300293
2639,-29.6875,-6.25,9.75,-0.08496094,-0.9848633,0.1723633,0.3491211,0.5517578,-0.300293
2642,-27.5625,-6.75,7.8125,-0.1005859,-0.965332,0.1796875,0.3466797,0.5571289,-0.2832031
2645,-38.75,-19.6875,4.8125,-0.1435547,-0.9379883,0.2954102,0.3466797,0.5571289,-0.2832031
2648,-32.0625,-12.6875,9.4375,-0.1279297,-0.9614258,0.2182617,0.3408203,0.5571289,-0.2915039
2651,-28.375,-10.875,9.5,-0.08886719,-0.9458008,0.168457,0.3408203,0.5625,-0.2832031
2654,-31.875,-15.6875,8.25,-0.06542969,-0.9418945,0.1489258,0.3408203,0.5625,-0.2832031
2657,-34.875,-16,11.125,-0.1005859,-0.9262695,0.1835938,0.34375,0.5600586,-0.2832031
2660,-33.5625,-13.5,13.25,-0.08886719,-0.9614258,0.1875,0.34375,0.5600586,-0.2832031
2663,-35.5625,-12.6875,14.75,-0.04199219,-0.965332,0.1489258,0.3520508,0.5654297,-0.2802734
2666,-39.4375,-16.625,14.1875,-0.1318359,-0.9692383,0.1762695,0.3520508,0.5625,-0.2802734
2669,-44.0625,-19.75,12.5625,-0.1396484,-0.8798828,0.1108398,0.3520508,0.5625,-0.2802734
2672,-37.3125,-20.75,11.25,-0.09667969,-1.039551,0.1030273,0.3520508,0.5654297,-0.2719727
2675,-35.1875,-22.5625,17.3125,-0.09277344,-0.8759766,0.1259766,0.3520508,0.5654297,-0.2719727
2678,-26.625,-23.875,15.5625,-0.1279297,-0.8642578,0.05664063,0.3579102,0.5683594,-0.2749023
2681,-24.125,-25.4375,14.3125,-0.08886719,-0.9150391,0.08740234,0.3579102,0.5683594,-0.2749023
2684,-24.1875,-25.9375,15.5,-0.07324219,-1.000488,0.1030273,0.34375,0.5654297,-0.2602539
2687,-29.375,-25.625,20.4375,-0.1083984,-0.9887695,0.1796875,0.3608398,0.5708008,-0.2719727
2690,-32.5625,-23.6875,19.4375,-0.1357422,-0.9770508,0.08398438,0.3608398,0.5708008,-0.2719727
2693,-33.5625,-27.9375,17.25,-0.1513672,-0.9458008,0.05322266,0.3520508,0.5708008,-0.2749023
2696,-30.75,-25.625,16,-0.2060547,-0.980957,0.006835938,0.3520508,0.5708008,-0.2749023
2699,-28.9375,-30.6875,11.8125,-0.2138672,-0.996582,0.04150391,0.3491211,0.5708008,-0.2719727
2702,-24.9375,-31.25,9.1875,-0.1083984,-0.965332,0.02246094,0.3466797,0.5654297,-0.2719727
2705,-22.625,-31.3125,8.125,-0.1240234,-0.9926758,0.02587891,0.3466797,0.5654297,-0.2719727
2708,-22.0625,-32.8125,7.6875,-0.1083984,-0.9575195,0.01464844,0.3520508,0.5625,-0.2773438
2711,-21.4375,-34.1875,8.75,-0.08886719,-0.9379883,0.07226563,0.3520508,0.5625,-0.2773438
2714,-19.3125,-34.5,9.9375,-0.07324219,-0.980957,0.04541016,0.3549805,0.5654297,-0.2602539
2717,-20.4375,-38.8125,11.75,-0.06933594,-0.9150391,0.04150391,0.3549805,0.5654297,-0.2602539
2720,-21.6875,-42.9375,12.9375,-0.04980469,-0.9536133,0.06054688,0.3466797,0.5541992,-0.2719727
2723,-16.75,-46.8125,15.625,0.1132813,-0.9033203,-0.1347656,0.3466797,0.5683594,-0.2602539
2726,-19.25,-54.5,16.25,-0.1083984,-0.980957,0.06054688,0.3466797,0.5683594,-0.2602539
2729,-16.9375,-53.125,15.4375,-0.08105469,-1.035645,-0.02734375,0.3491211,0.5708008,-0.2602539
2732,-18.125,-53.75,12.3125,-0.1630859,-1.02002,-0.03857422,0.3491211,0.5708008,-0.2602539
2735,-11.8125,-54.5625,10.1875,-0.1669922,-1.008301,-0.06933594,0.3378906,0.5708008,-0.269043
2738,-10.625,-58.25,9.4375,-0.1201172,-1.129395,-0.03857422,0.3266602,0.5737305,-0.2719727
2741,-13.5625,-57.75,7.4375,-0.07324219,-1.129395,-0.02734375,0.3266602,0.5737305,-0.2719727
2744,-30.3125,-51,4,-0.07324219,-1.180176,-0.015625,0.3378906,0.5737305,-0.269043
2747,-38.25,-51.375,4.125,-0.06152344,-1.11377,-0.09277344,0.3378906,0.5737305,-0.269043
2750,-48.0625,-54,2.25,0.02001953,-0.9614258,-0.03857422,0.3408203,0.5737305,-0.2602539
2753,-42.25,-49.25,6.3125,0.01220703,-0.9614258,-0.05810547,0.3408203,0.5737305,-0.2602539
2756,-33.4375,-51.4375,13.75,0.05908203,-0.8525391,-0.0234375,0.3320313,0.5737305,-0.269043
2759,-31.0625,-54.8125,19.25,0.05126953,-0.8212891,0.01855469,0.3320313,0.5737305,-0.269043
2762,-31.625,-57.625,26.125,0.02001953,-0.7744141,-0.0078125,0.3320313,0.5737305,-0.269043
2765,-29.625,-62.9375,29.5625,-0.01464844,-0.7236328,0.01464844,0.3291016,0.5849609,-0.269043
2768,-23.25,-67.4375,33.25,-0.01074219,-0.7509766,-0.004394531,0.3291016,0.5849609,-0.269043
2771,-24.375,-68.6875,36,-0.03027344,-0.7861328,0.02978516,0.3237305,0.5737305,-0.2661133
2774,-23.875,-70.1875,36.5,-0.1123047,-0.8525391,0.01464844,0.3320313,0.5737305,-0.2548828
2777,-24.25,-72.8125,34.6875,-0.1044922,-0.8564453,0.02978516,0.3320313,0.5737305,-0.2548828
2780,-31.5625,-74.75,33.625,-0.1005859,-0.8876953,0.04931641,0.3320313,0.5766602,-0.2631836
2783,-34.0625,-75.875,33.625,-0.1044922,-0.8837891,0.04150391,0.3320313,0.5766602,-0.2631836
2786,-35.0625,-76.4375,33.5,-0.1396484,-0.9033203,0.02978516,0.3266602,0.5820313,-0.2719727
2789,-36.625,-78.875,32.3125,-0.1552734,-0.9033203,0.04150391,0.3266602,0.5820313,-0.2719727
2792,-39.25,-82.4375,33.4375,-0.1787109,-0.8994141,0.04541016,0.3266602,0.5820313,-0.2719727
2795,-42.5,-84.0625,36.25,-0.1787109,-0.9262695,0.05322266,0.3291016,0.5795898,-0.2719727
2798,-42.875,-88.625,32.8125,-0.2099609,-0.980957,0.006835938,0.3291016,0.5795898,-0.2719727
2801,-51.0625,-96.5625,31.8125,-0.2329102,-0.9458008,0.04150391,0.3149414,0.590332,-0.269043
2804,-46.625,-98.625,32.4375,-0.2641602,-1.02002,0.03759766,0.3149414,0.590332,-0.269043
2807,-44.6875,-101.4375,30.5625,-0.2954102,-1.027832,-0.004394531,0.3095703,0.5849609,-0.2578125
2810,-49.875,-105.375,27.125,-0.3266602,-1.035645,-0.015625,0.3095703,0.5737305,-0.2719727
2813,-49.5,-108.0625,22.6875,-0.3500977,-1.031738,-0.01171875,0.3095703,0.5737305,-0.2719727
2816,-60.3125,-107.625,17.6875,-0.3852539,-1.047363,0.02978516,0.3095703,0.5878906,-0.2602539
2819,-51.4375,-107.3125,20.125,-0.3500977,-1.055176,0.02246094,0.3095703,0.5878906,-0.2602539
2822,-45.75,-105.5625,23.0625,-0.3774414,-1.055176,0.01074219,0.3095703,0.5878906,-0.2602539
2825,-48.625,-105.375,23.6875,-0.4282227,-1.055176,-0.004394531,0.3007813,0.5932617,-0.2548828
2828,-46.9375,-103.125,23.5625,-0.4633789,-1.102051,-0.06933594,0.3007813,0.5932617,-0.2548828
2831,-50.6875,-100.0625,22.75,-0.4594727,-1.070801,-0.015625,0.2866211,0.5986328,-0.2519531
2834,-45.375,-99.1875,22.25,-0.4829102,-1.055176,-0.03857422,0.2866211,0.5986328,-0.2519531
2837,-38.9375,-98.4375,21.875,-0.4555664,-1.055176,-0.05810547,0.2895508,0.5878906,-0.2578125
2840,-24.4375,-96.25,22.9375,-0.4516602,-1.11377,-0.03515625,0.2895508,0.5878906,-0.2578125
2843,-15.6875,-94.6875,22.1875,-0.4438477,-1.066895,-0.05419922,0.2924805,0.6044922,-0.2519531
2846,-9.375,-94.375,21.0625,-0.3930664,-1.109863,-0.06591797,0.2807617,0.6069336,-0.2631836
2849,-7.125,-94.375,19.375,-0.3149414,-1.027832,-0.06201172,0.2807617,0.6069336,-0.2631836
2852,-12.5625,-94.0625,16.3125,-0.3383789,-1.008301,-0.08886719,0.2807617,0.6069336,-0.2631836
2855,-11,-91.6875,17.0625,-0.2954102,-1.066895,-0.015625,0.2807617,0.6069336,-0.2631836
2858,-1.8125,-85.125,16.25,-0.3110352,-0.9926758,-0.0078125,0.2724609,0.5986328,-0.2631836
2861,-0.125,-84.5,14.375,-0.2993164,-0.965332,-0.02734375,0.2749023,0.5932617,-0.2661133
2864,-15.3125,-84.625,9.6875,-0.3579102,-0.9926758,0.01074219,0.2749023,0.5932617,-0.2661133
2867,-14.0625,-83.125,9.4375,-0.3110352,-0.9692383,-0.015625,0.2807617,0.5932617,-0.2802734
2870,-11.9375,-82.9375,10.8125,-0.2954102,-0.9072266,-0.0234375,0.2807617,0.5932617,-0.2802734
2873,-16.125,-86.125,12.4375,-0.2993164,-0.9731445,-0.0078125,0.2695313,0.590332,-0.2719727
2876,-19.8125,-86,11.125,-0.3618164,-0.9223633,0.04150391,0.2695313,0.590332,-0.2719727
2879,-19.5625,-88.625,11.125,-0.3735352,-0.8837891,0.04931641,0.2607422,0.5961914,-0.2631836
2882,-19.0625,-90.375,10.5625,-0.3891602,-0.8642578,0.04541016,0.2636719,0.6015625,-0.2661133
2885,-24.375,-92.25,9.75,-0.4125977,-0.8525391,0.01464844,0.2636719,0.6015625,-0.2661133
2888,-16.0625,-93.375,8.25,-0.3891602,-0.8642578,0.04150391,0.2553711,0.6152344,-0.2661133
2891,-7.75,-94.1875,7.1875,-0.3969727,-0.8369141,-0.004394531,0.2553711,0.6152344,-0.2661133
2894,-8.9375,-95.0625,6.375,-0.3969727,-0.8369141,0.03759766,0.2495117,0.6044922,-0.269043
2897,-8.1875,-95.4375,5.5625,-0.3813477,-0.8251953,0.03759766,0.2553711,0.6044922,-0.2602539
2900,-4.25,-95.875,5.1875,-0.3930664,-0.8720703,0.03759766,0.2553711,0.6044922,-0.2602539
2903,-3.375,-95.125,4.1875,-0.3969727,-0.8056641,0.006835938,0.2553711,0.6015625,-0.2661133
2906,-6.125,-95.1875,4.4375,-0.3618164,-0.8095703,-0.0078125,0.2553711,0.6015625,-0.2661133
2909,-7.5625,-94.4375,4.6875,-0.3540039,-0.8408203,0.01464844,0.237793,0.6015625,-0.2719727
2912,-30.25,-92,6.875,-0.2719727,-0.8759766,0.04150391,0.237793,0.6015625,-0.2719727
2915,-24.375,-86.5625,10.0625,-0.3969727,-0.8251953,-0.04638672,0.2324219,0.6015625,-0.2719727
2918,-8.75,-89.4375,4.4375,-0.3930664,-0.7978516,-0.01171875,0.2236328,0.6098633,-0.269043
2921,-11.375,-90.5,3.375,-0.3891602,-0.8369141,0.01464844,0.2236328,0.6098633,-0.269043
2924,-15.25,-88.9375,2.4375,-0.3735352,-0.8798828,0.03369141,0.2182617,0.6015625,-0.2631836
2927,-17.6875,-87.25,1.75,-0.3969727,-0.8798828,0.02587891,0.2182617,0.6015625,-0.2631836
2930,-18.3125,-86,0.75,-0.3774414,-0.8916016,-0.04248047,0.2236328,0.5961914,-0.2661133
2933,-15.5625,-83.0625,0.8125,-0.3540039,-0.8369141,-0.06591797,0.2182617,0.6152344,-0.2661133
2936,-12.125,-80.5625,0.75,-0.3540039,-0.8564453,-0.04638672,0.2182617,0.6152344,-0.2661133
2939,-12.625,-77.375,1.5,-0.3305664,-0.8955078,0.04150391,0.2124023,0.6098633,-0.2832031
2942,-17.4375,-75.9375,1.75,-0.3188477,-0.8798828,0.05664063,0.2124023,0.6098633,-0.2832031
2945,-20.25,-75.125,1.6875,-0.3696289,-0.8837891,0.07617188,0.206543,0.6098633,-0.269043
2948,-23.5,-75.6875,0.9375,-0.3891602,-0.8603516,0.08398438,0.2036133,0.612793,-0.2749023
2951,-22.9375,-76.375,-0.6875,-0.3813477,-0.8837891,0.02978516,0.2036133,0.612793,-0.2749023
2954,-20.4375,-75.5,-2.1875,-0.3618164,-0.8837891,0.01855469,0.1923828,0.6069336,-0.2832031
2957,-17.1875,-74.3125,-3.75,-0.3735352,-0.9033203,0.006835938,0.1923828,0.6069336,-0.2832031
2960,-14.5625,-71.9375,-4.4375,-0.3500977,-0.9379883,-0.01171875,0.1923828,0.6098633,-0.2631836
2963,-13.9375,-70,-4.75,-0.3618164,-0.9111328,0.03759766,0.1923828,0.6098633,-0.2631836
2966,-14.3125,-69.3125,-5.125,-0.3696289,-0.9418945,0.04150391,0.1953125,0.612793,-0.2631836
2969,-15,-68.9375,-5.9375,-0.3735352,-0.9301758,0.01464844,0.1811523,0.6210938,-0.2719727
2972,-16,-67.75,-6.9375,-0.3813477,-0.9150391,0.02978516,0.1811523,0.6210938,-0.2719727
2975,-18.125,-66.8125,-7.625,-0.3930664,-0.918457,0.07226563,0.1865234,0.612793,-0.2578125
2978,-20.375,-65.4375,-8.6875,-0.3774414,-0.9072266,0.08007813,0.1865234,0.612793,-0.2578125
2981,-21.5625,-64.875,-9.375,-0.4047852,-0.8447266,0.01855469,0.1782227,0.612793,-0.2661133
2984,-26.5625,-62.9375,-10.9375,-0.4633789,-0.918457,0.06054688,0.1723633,0.6152344,-0.2602539
2987,-29.4375,-60.5625,-10.5,-0.4360352,-0.8369141,0.04931641,0.1723633,0.6152344,-0.2602539
2990,-26.5,-59.75,-11.0625,-0.4516602,-0.8876953,0.04931641,0.1552734,0.6152344,-0.2661133
2993,-25.125,-59.4375,-10.5625,-0.4321289,-0.8681641,0.02587891,0.1552734,0.6152344,-0.2661133
2996,-24.0625,-58.9375,-10.75,-0.4672852,-0.8525391,0.05322266,0.1640625,0.6264648,-0.2519531
2999,-23.5,-59.4375,-10,-0.4438477,-0.8603516,0.05322266,0.1640625,0.6264648,-0.2519531
3002,-20.75,-61.0625,-11.875,-0.4594727,-0.8916016,0.006835938,0.1523438,0.6264648,-0.2548828
3005,-19.3125,-63.6875,-11,-0.4633789,-0.9033203,0.04541016,0.1611328,0.6181641,-0.2460938
3008,-18,-64.9375,-10.4375,-0.4750977,-0.9262695,0.03759766,0.1611328,0.6181641,-0.2460938
3011,-18.875,-65.625,-10.75,-0.4516602,-0.918457,0.03759766,0.1381836,0.6181641,-0.2490234
3014,-18.25,-65.5625,-10.0625,-0.4672852,-0.934082,0.05322266,0.1381836,0.6181641,-0.2490234
3017,-18.1875,-67.5,-9.6875,-0.4555664,-0.9223633,0.03369141,0.1469727,0.6210938,-0.2348633
3020,-17.625,-70.5,-10.375,-0.4907227,-0.9033203,0.03759766,0.144043,0.6264648,-0.2548828
3023,-17.5625,-72.875,-11.0625,-0.4985352,-0.9223633,0.04541016,0.144043,0.6264648,-0.2548828
3026,-18.6875,-75.125,-11.125,-0.5097656,-0.9111328,0.01464844,0.1352539,0.6264648,-0.2460938
3029,-16.5625,-76.8125,-11.5625,-0.5019531,-0.9150391,0.02246094,0.1352539,0.6264648,-0.2460938
3032,-14.9375,-77.9375,-11.625,-0.5292969,-0.9150391,-0.015625,0.1152344,0.6293945,-0.2490234
3035,-13.875,-79.5,-13.125,-0.5253906,-0.918457,-0.01171875,0.1152344,0.6293945,-0.2490234
3038,-12.3125,-81.1875,-14.25,-0.5214844,-0.8798828,-0.0078125,0.1210938,0.6235352,-0.2460938
3041,-12.0625,-82,-15.5625,-0.5175781,-0.8642578,-0.01953125,0.1210938,0.6235352,-0.2460938
3044,-12,-82.1875,-16.375,-0.5175781,-0.8447266,-0.004394531,0.1210938,0.6235352,-0.2460938
3047,-12.5625,-83.3125,-17.4375,-0.5097656,-0.8408203,0.01074219,0.1069336,0.6318359,-0.2460938
3050,-11.8125,-84.25,-18.3125,-0.5175781,-0.8251953,0.01074219,0.1069336,0.6318359,-0.2460938
3053,-12.5625,-84.6875,-18.5625,-0.4907227,-0.8369141,-0.004394531,0.09521484,0.6235352,-0.2460938
3056,-13.5625,-85.375,-18.9375,-0.4907227,-0.8017578,-0.01953125,0.1010742,0.6210938,-0.2265625
3059,-14,-85.9375,-19.5,-0.4946289,-0.7900391,-0.01953125,0.1010742,0.6210938,-0.2265625
3062,-14.125,-87.1875,-19.8125,-0.4633789,-0.7822266,-0.0078125,0.08398438,0.6293945,-0.237793
3065,-14.25,-87.625,-20.25,-0.4711914,-0.8056641,-0.01953125,0.08398438,0.6293945,-0.237793
3068,-13.6875,-88.9375,-21,-0.4516602,-0.7822266,-0.0234375,0.078125,0.6293945,-0.2265625
3071,-14.8125,-90.0625,-21.75,-0.4594727,-0.7900391,0.02246094,0.078125,0.6293945,-0.2265625
3074,-15.3125,-90.125,-23.75,-0.4868164,-0.8525391,0.03759766,0.078125,0.6293945,-0.2265625
3077,-16.625,-90.4375,-25.5,-0.4829102,-0.8525391,0.01464844,0.06982422,0.6264648,-0.2265625
3080,-17.75,-90.875,-27.1875,-0.4868164,-0.8173828,-0.015625,0.06982422,0.6264648,-0.2265625
3083,-17.1875,-91.3125,-28.9375,-0.4829102,-0.8564453,0.01074219,0.05810547,0.6318359,-0.2290039
3086,-16.875,-92,-30.875,-0.4711914,-0.8564453,0.02246094,0.05810547,0.6318359,-0.2290039
3089,-16.25,-91.25,-31.5625,-0.4868164,-0.8525391,0.03759766,0.05273438,0.6235352,-0.2290039
3092,-15.9375,-91.1875,-32.8125,-0.5058594,-0.9072266,0.06054688,0.046875,0.6293945,-0.2177734
3095,-15.75,-91.4375,-34.0625,-0.5058594,-0.9111328,0.05322266,0.046875,0.6293945,-0.2177734
3098,-15.125,-91.0625,-35.3125,-0.4829102,-0.8916016,0.06835938,0.03271484,0.6347656,-0.2207031
3101,-15.625,-91.125,-37.3125,-0.4868164,-0.9072266,0.08398438,0.03271484,0.6347656,-0.2207031
3104,-16.5,-93.0625,-39.75,-0.4711914,-0.9150391,0.1376953,0.03271484,0.6347656,-0.2207031
3107,-18.8125,-94.3125,-41.375,-0.4633789,-0.9223633,0.08740234,0.02978516,0.640625,-0.2094727
3110,-20.3125,-95.75,-42.1875,-0.4321289,-0.9150391,0.1147461,0.02978516,0.640625,-0.2094727
3113,-20.5,-96.0625,-42.875,-0.4516602,-0.8916016,0.09521484,0.015625,0.6181641,-0.1948242
3116,-19.6875,-96.125,-42.6875,-0.4360352,-0.9033203,0.05322266,0.015625,0.6181641,-0.1948242
3119,-19.375,-98.125,-41.75,-0.4360352,-0.9111328,0.01855469,0.00390625,0.6210938,-0.1894531
3122,-39.875,-97.4375,-43.375,-0.4555664,-0.8955078,0.1567383,0.00390625,0.6210938,-0.1894531
3125,-26.6875,-99.8125,-42.1875,-0.3696289,-0.9150391,0.07617188,-0.00390625,0.6210938,-0.1835938
3128,-30.9375,-101.8125,-44.3125,-0.4086914,-0.8798828,0.05322266,-0.02099609,0.6318359,-0.1835938
3131,-28.4375,-102.375,-43.25,-0.4165039,-0.8876953,0.06054688,-0.02099609,0.6318359,-0.1835938
3134,-30.875,-102.4375,-45.75,-0.4204102,-0.8837891,0.07617188,-0.02099609,0.6318359,-0.1835938
3137,-21.375,-99.4375,-45.6875,-0.4008789,-0.9033203,0.02978516,-0.02099609,0.6318359,-0.1835938
3140,-22.8125,-99.1875,-47.375,-0.3540039,-0.9262695,0.06835938,-0.04980469,0.6181641,-0.175293
3143,-20.25,-99.9375,-46.3125,-0.3266602,-0.918457,0.06835938,-0.03515625,0.6098633,-0.1635742
3146,-23.25,-101.6875,-46.9375,-0.2719727,-0.934082,0.02246094,-0.03515625,0.6098633,-0.1635742
3149,-23.875,-104.8125,-43.875,-0.2680664,-0.918457,0.06835938,-0.05273438,0.6264648,-0.1523438
3152,-26.125,-109,-43.625,-0.3188477,-0.9536133,0.002929688,-0.05273438,0.6264648,-0.1523438
3155,-18.125,-110.4375,-42.4375,-0.2211914,-0.9692383,-0.1079102,-0.05810547,0.6210938,-0.1552734
3158,-15.125,-110.6875,-39.625,-0.2021484,-0.9458008,-0.1503906,-0.05810547,0.6210938,-0.1552734
3161,-3.75,-109.375,-39.8125,-0.1044922,-0.9301758,-0.2695313,-0.06103516,0.612793,-0.1552734
3164,-6.125,-109.1875,-30.5,-0.05761719,-0.996582,-0.1772461,-0.06103516,0.612793,-0.1552734
3167,-1.5625,-105.125,-22.75,-0.02246094,-1.039551,-0.2231445,-0.06103516,0.612793,-0.1552734
3170,-3.0625,-104.6875,-17.375,-0.002929688,-1.070801,-0.2080078,-0.08691406,0.612793,-0.1381836
3173,4.375,-105,-14.3125,-0.01074219,-1.047363,-0.2158203,-0.08691406,0.612793,-0.1381836
3176,-3.375,-104.625,-12.5625,0.0004882813,-1.02002,-0.230957,-0.078125,0.6015625,-0.1210938
3179,4.5625,-102.6875,2.125,-0.03808594,-1.055176,-0.2885742,-0.09228516,0.6098633,-0.1269531
3182,0.8125,-99.3125,-3.3125,-0.01074219,-1.043457,-0.246582,-0.09228516,0.6098633,-0.1269531
3185,-9.0625,-101.125,-3.9375,0.0004882813,-1.016113,-0.2617188,-0.09521484,0.6098633,-0.1298828
3188,-7.6875,-104.125,-10.9375,0.04736328,-1.031738,-0.2578125,-0.09521484,0.6098633,-0.1298828
3191,-1,-104.1875,-4.6875,0.0859375,-1.004395,-0.284668,-0.109375,0.6181641,-0.112793
3194,-9.875,-103.375,-12.75,0.0859375,-0.996582,-0.3232422,-0.109375,0.6181641,-0.112793
3197,-9.75,-101.1875,-13.3125,0.1015625,-1.027832,-0.246582,-0.1123047,0.612793,-0.112793
3200,-11.1875,-98.375,-13.25,0.1210938,-1.102051,-0.2119141,-0.109375,0.612793,-0.1010742
3203,-17.5,-97.4375,-14.1875,0.1289063,-1.129395,-0.1347656,-0.109375,0.612793,-0.1010742
3206,-26.1875,-95.375,-15,0.06689453,-1.148926,-0.1196289,-0.109375,0.6152344,-0.09277344
3209,-33.9375,-93,-16.625,0.004394531,-1.137207,-0.1157227,-0.109375,0.6152344,-0.09277344
3212,-38.375,-91.75,-18.4375,-0.01464844,-1.129395,-0.1464844,-0.1152344,0.6181641,-0.09277344
3215,-40.125,-90.75,-19.9375,-0.05761719,-1.094238,-0.1347656,-0.1040039,0.6181641,-0.07568359
3218,-38.6875,-87.4375,-19.8125,-0.04199219,-1.086426,-0.07324219,-0.1040039,0.6181641,-0.07568359
3221,-36.1875,-85.8125,-19,-0.04199219,-1.05127,-0.09277344,-0.109375,0.6069336,-0.07275391
3224,-32.6875,-85.5,-18.125,-0.06542969,-1.039551,-0.08886719,-0.109375,0.6069336,-0.07275391
3227,-28.9375,-86,-17.5625,-0.08496094,-1.043457,-0.09277344,-0.1323242,0.6264648,-0.06689453
3230,-24.6875,-86.6875,-17.125,-0.08105469,-0.9926758,-0.08886719,-0.1411133,0.6069336,-0.04980469
3233,-21.75,-86.9375,-16.875,-0.08496094,-0.9731445,-0.06591797,-0.1411133,0.6069336,-0.04980469
3236,-18.8125,-86.9375,-16.25,-0.05371094,-0.9418945,-0.06201172,-0.1381836,0.6044922,-0.04443359
3239,-16.25,-87.375,-16,-0.06542969,-0.8876953,-0.09277344,-0.1381836,0.6044922,-0.04443359
3242,-12.9375,-86.875,-15.375,-0.01464844,-0.8759766,-0.05029297,-0.1494141,0.6069336,-0.04150391
3245,-9.4375,-85.3125,-15.125,-0.01855469,-0.8876953,-0.08496094,-0.1494141,0.6069336,-0.04150391
3248,-6.4375,-84.625,-15.4375,0.01220703,-0.8564453,-0.1079102,-0.1411133,0.612793,-0.02734375
3251,-4.875,-83.25,-14.75,0.03955078,-0.8369141,-0.1040039,-0.1494141,0.6098633,-0.02441406
3254,-2.5625,-81.125,-13.375,0.04736328,-0.8369141,-0.08496094,-0.1494141,0.6098633,-0.02441406
3257,-2.4375,-79.1875,-11.75,0.04345703,-0.8134766,-0.06591797,-0.1582031,0.6098633,-0.01611328
3260,-3.5625,-76.875,-10.6875,0.02392578,-0.8369141,-0.08496094,-0.1582031,0.6098633,-0.01611328
3263,-4.125,-75,-10.625,-0.01074219,-0.8017578,-0.05029297,-0.1523438,0.6015625,-0.02441406
3266,-5.3125,-74.4375,-11,0.008300781,-0.8134766,-0.06201172,-0.1552734,0.6069336,-0.001464844
3269,-6.1875,-73.6875,-10.5,-0.006835938,-0.8173828,-0.04638672,-0.1552734,0.6069336,-0.001464844
3272,-7.0625,-71.6875,-9.25,-0.01074219,-0.8408203,-0.08496094,-0.1523438,0.6044922,-0.001464844
3275,-6.0625,-70.25,-9.125,-0.04199219,-0.8408203,-0.08105469,-0.1523438,0.6044922,-0.001464844
3278,-5.5,-70.25,-9.375,-0.01074219,-0.8525391,-0.05419922,-0.1552734,0.6044922,0.003417969
3281,-6.625,-71.125,-10.375,-0.002929688,-0.8642578,-0.04638672,-0.1552734,0.6044922,0.003417969
3284,-8.0625,-71.625,-10.875,-0.03417969,-0.8798828,-0.07324219,-0.1523438,0.6044922,0.006347656
3287,-9.125,-71.125,-11.375,-0.05371094,-0.8369141,-0.03515625,-0.1552734,0.6044922,0.02050781
3290,-8.5625,-69.6875,-11.0625,-0.07324219,-0.8681641,-0.06201172,-0.1552734,0.6044922,0.02050781
3293,-7.3125,-68.125,-11.125,-0.07324219,-0.8408203,-0.0234375,-0.1464844,0.5932617,0.02050781
3296,-6.25,-66.1875,-10.875,-0.08496094,-0.9072266,-0.0078125,-0.1464844,0.5932617,0.02050781
3299,-6.0625,-64.5625,-9.25,-0.06542969,-0.9223633,-0.0234375,-0.1582031,0.6044922,0.02636719
3302,-5.5625,-63.4375,-7.9375,-0.04980469,-0.9111328,0.002929688,-0.1665039,0.5849609,0.02050781
3305,-5.75,-62,-6.6875,-0.04199219,-0.9262695,0.002929688,-0.1665039,0.5849609,0.02050781
3308,-5.75,-61.5,-5.9375,-0.04199219,-0.9614258,-0.015625,-0.1582031,0.590332,0.03466797
3311,-6.1875,-61,-4.875,-0.03027344,-0.9692383,-0.03857422,-0.1582031,0.590332,0.03466797
3314,-4.625,-59.9375,-4.375,-0.05371094,-0.9692383,-0.0078125,-0.1494141,0.6015625,0.03759766
3317,-3.6875,-59,-4.1875,-0.04199219,-1.000488,-0.004394531,-0.1494141,0.6015625,0.03759766
3320,-2.75,-57.8125,-3.5,-0.01464844,-0.9848633,-0.0004882813,-0.1611328,0.5961914,0.04345703
3323,-2.25,-54.875,-3,-0.03027344,-0.996582,0.006835938,-0.1552734,0.5932617,0.0546875
3326,-2.8125,-53.5625,-2.1875,-0.06152344,-0.9770508,0.04150391,-0.1552734,0.5932617,0.0546875
3329,-2.125,-53.4375,-4.125,-0.03417969,-1.008301,-0.0078125,-0.1494141,0.5961914,0.05175781
3332,-2.625,-52.8125,-3.625,-0.01464844,-0.9458008,0.03369141,-0.1494141,0.5961914,0.05175781
3335,-2.625,-51.375,-3.5,-0.01464844,-0.9379883,0.02246094,-0.1523438,0.590332,0.0546875
3338,-3.1875,-51.1875,-3.75,-0.05761719,-0.9301758,0.01855469,-0.1494141,0.5961914,0.0546875
3341,-3.375,-50.5625,-3.0625,-0.05371094,-0.9150391,0.04931641,-0.1494141,0.5961914,0.0546875
3344,-4.125,-49.25,-0.75,-0.03027344,-0.8955078,0.03369141,-0.1694336,0.5878906,0.06298828
3347,-4.25,-46.625,0.4375,-0.01855469,-0.8916016,0.02246094,-0.1694336,0.5878906,0.06298828
3350,-4.3125,-45.6875,0.5625,-0.04589844,-0.8837891,0.01855469,-0.1635742,0.6044922,0.07763672
3353,-4.1875,-43.5625,1.6875,-0.04199219,-0.8798828,0.04150391,-0.1635742,0.6044922,0.07763672
3356,-4.875,-41.375,1.25,-0.05371094,-0.9033203,0.01074219,-0.1635742,0.6044922,0.07763672
3359,-6.9375,-39.8125,1.75,-0.03027344,-0.8642578,0.04931641,-0.1582031,0.6044922,0.08300781
3362,-7.9375,-39,2.5,-0.04199219,-0.9072266,0.03369141,-0.1582031,0.6044922,0.08300781
3365,-8.8125,-38.875,2.25,-0.03808594,-0.8720703,0.04931641,-0.1494141,0.5932617,0.09179688
3368,-8.8125,-37.6875,2.5,-0.04199219,-0.918457,0.02587891,-0.1494141,0.5932617,0.09179688
3371,-9.1875,-37.375,3.4375,-0.03417969,-0.9033203,0.04150391,-0.1635742,0.590332,0.09179688
3374,-9.5,-37.25,3.9375,-0.02636719,-0.9223633,0.006835938,-0.1552734,0.5878906,0.09716797
3377,-10.625,-35.875,5.375,-0.01855469,-0.9150391,0.02978516,-0.1552734,0.5878906,0.09716797
3380,-11.3125,-35.375,6.1875,-0.02636719,-0.918457,-0.0004882813,-0.1494141,0.6015625,0.09472656
3383,-11.25,-35.4375,6.1875,-0.07714844,-0.918457,0.01464844,-0.1494141,0.6015625,0.09472656
3386,-10.875,-35.5625,6.5,-0.07324219,-0.9223633,0.04150391,-0.1494141,0.6015625,0.09472656
3389,-11.0625,-33.9375,6.6875,-0.06152344,-0.9033203,0.06054688,-0.1464844,0.5932617,0.1030273
3392,-11.4375,-33.9375,7.0625,-0.1005859,-0.8955078,0.01855469,-0.1464844,0.5932617,0.1030273
3395,-11.1875,-34.1875,7.375,-0.05761719,-0.8876953,0.04150391,-0.1523438,0.6069336,0.09716797
3398,-10.875,-34,8.25,-0.1083984,-0.8837891,0.04541016,-0.1523438,0.6069336,0.09716797
3401,-10.5625,-33.9375,9.1875,-0.1201172,-0.8994141,0.02587891,-0.1552734,0.5878906,0.105957
3404,-10.1875,-34.875,10.25,-0.07324219,-0.9033203,0.04541016,-0.1552734,0.5878906,0.105957
3407,-10.3125,-34.8125,11.75,-0.08886719,-0.8876953,0.05322266,-0.1464844,0.6015625,0.1113281
3410,-9.625,-35.875,13.1875,-0.05371094,-0.8798828,0.04931641,-0.1523438,0.6015625,0.1171875
3413,-8.5625,-36.3125,14.5625,-0.06152344,-0.934082,0.03369141,-0.1523438,0.6015625,0.1171875
3416,-6.875,-37.3125,15.4375,-0.07714844,-0.9111328,0.02587891,-0.1523438,0.6015625,0.1171875
3419,-4.9375,-39.5625,16,-0.05761719,-0.934082,0.006835938,-0.1523438,0.6015625,0.1171875
3422,-2.625,-40.1875,17.4375,-0.08886719,-0.934082,0.02246094,-0.1352539,0.5932617,0.1088867
3425,-1.1875,-40.875,18.375,-0.08496094,-0.965332,0.03759766,-0.1293945,0.6098633,0.1230469
3428,0.3125,-42.125,19.0625,-0.1044922,-0.996582,0.03759766,-0.1293945,0.6098633,0.1230469
3431,1,-42.625,20.125,-0.09277344,-0.996582,0.05322266,-0.1411133,0.6015625,0.1171875
3434,0.4375,-44.0625,20.4375,-0.08496094,-1.004395,0.07617188,-0.1411133,0.6015625,0.1171875
3437,-0.6875,-45.8125,21.1875,-0.1162109,-1.027832,0.09521484,-0.1381836,0.5986328,0.1201172
3440,-4.1875,-44.1875,24.375,-0.1591797,-1.055176,0.1069336,-0.1381836,0.5986328,0.1201172
3443,-2,-46.375,24.375,-0.1123047,-1.062988,0.1298828,-0.1411133,0.6098633,0.1313477
3446,-5.125,-45.25,21.75,-0.1279297,-1.066895,0.1181641,-0.1411133,0.6098633,0.1313477
3449,-3.625,-51.25,23.25,-0.1318359,-1.098145,0.1259766,-0.1411133,0.6098633,0.1313477
3452,-8.75,-53.9375,18.9375,-0.1123047,-1.062988,0.2182617,-0.1210938,0.612793,0.137207
3455,-5,-56.9375,19.4375,-0.1669922,-1.11377,0.03369141,-0.1210938,0.612793,0.137207
3458,-3.9375,-60.9375,15.0625,-0.1904297,-1.148926,0.03369141,-0.1123047,0.612793,0.1430664
3461,-1.6875,-61,12.9375,-0.2524414,-1.14502,-0.07714844,-0.1152344,0.6069336,0.1313477
3464,5.8125,-59.75,10.375,-0.2099609,-1.23877,-0.09667969,-0.1152344,0.6069336,0.1313477
3467,11.25,-58.1875,9.0625,-0.1826172,-1.304688,-0.07324219,-0.1240234,0.6098633,0.137207
3470,7.875,-58.3125,10.625,-0.1591797,-1.335938,-0.08886719,-0.1240234,0.6098633,0.137207
3473,2.9375,-56.0625,12.3125,-0.1669922,-1.34375,-0.1274414,-0.1069336,0.6069336,0.1542969
3476,-2.8125,-52.875,13.5,-0.2407227,-1.296875,-0.1962891,-0.1069336,0.6069336,0.1542969
3479,-2.3125,-49.6875,14.125,-0.2719727,-1.304688,-0.2504883,-0.1069336,0.6069336,0.1542969
3482,2.1875,-45.9375,13.0625,-0.2719727,-1.273438,-0.2963867,-0.1040039,0.6181641,0.1572266
3485,7.3125,-43.625,11.875,-0.2993164,-1.242676,-0.2773438,-0.1040039,0.6181641,0.1572266
3488,10.125,-41.1875,11.0625,-0.3344727,-1.152832,-0.2231445,-0.1010742,0.6098633,0.1542969
3491,10.4375,-39.4375,9.5625,-0.3579102,-1.102051,-0.1464844,-0.1010742,0.6098633,0.1542969
3494,10.0625,-40.25,6.8125,-0.3774414,-0.9848633,-0.1040039,-0.1040039,0.6098633,0.1484375
3497,-7.5,-36.4375,2.75,-0.4165039,-0.8876953,-0.03125,-0.09814453,0.6152344,0.159668
3500,-2.75,-41.625,-0.875,-0.3618164,-0.8564453,-0.08496094,-0.09814453,0.6152344,0.159668
3503,-0.5625,-41.25,-3.75,-0.3618164,-0.7939453,-0.07714844,-0.1040039,0.6210938,0.1713867
3506,3.1875,-41.625,-5.625,-0.3110352,-0.7509766,-0.1040039,-0.1040039,0.6210938,0.1713867
3509,3,-42.625,-6.125,-0.2954102,-0.7548828,-0.08886719,-0.09228516,0.6293945,0.1713867
3512,1.8125,-40.5625,-5.75,-0.3383789,-0.7587891,-0.1347656,-0.09521484,0.6152344,0.1743164
3515,-1.375,-39.375,-5.5625,-0.4047852,-0.7861328,-0.1503906,-0.09521484,0.6152344,0.1743164
3518,-5.25,-39.125,-6.1875,-0.4243164,-0.8212891,-0.1157227,-0.09228516,0.6152344,0.1884766
3521,-8.4375,-39,-6.25,-0.4555664,-0.8681641,-0.08886719,-0.09228516,0.6152344,0.1884766
3524,-9.625,-39.125,-7.5625,-0.4711914,-0.8994141,-0.1040039,-0.09228516,0.6210938,0.1884766
3527,-10.25,-39.375,-7.5,-0.4790039,-0.918457,-0.1582031,-0.09228516,0.6210938,0.1884766
3530,-9.8125,-41.1875,-7.375,-0.4555664,-0.9418945,-0.1347656,-0.09228516,0.6235352,0.1826172
3533,-7.25,-44.1875,-6.25,-0.4399414,-1.016113,-0.1694336,-0.09814453,0.612793,0.1938477
3536,-2.625,-46.1875,-5.5625,-0.4829102,-1.078613,-0.1464844,-0.09814453,0.612793,0.1938477
3539,0.9375,-48.875,-3.25,-0.4438477,-1.105957,-0.1923828,-0.08398438,0.6264648,0.1914063
3542,0.75,-52.875,-4.625,-0.4008789,-1.191895,-0.1616211,-0.08398438,0.6264648,0.1914063
3545,2.625,-55.75,-5.8125,-0.4125977,-1.203613,-0.1582031,-0.09228516,0.6152344,0.2080078
3548,4.4375,-58.25,-7.75,-0.4047852,-1.227051,-0.1582031,-0.08398438,0.612793,0.2026367
3551,5.0625,-61,-10.1875,-0.3579102,-1.168457,-0.1274414,-0.08398438,0.612793,0.2026367
3554,3.75,-62.8125,-11.5,-0.3383789,-1.137207,-0.1040039,-0.09228516,0.6181641,0.1967773
3557,2.25,-63.625,-13,-0.3344727,-1.055176,-0.1235352,-0.09228516,0.6181641,0.1967773
3560,1.8125,-64.75,-13.8125,-0.3149414,-1.02002,-0.09277344,-0.078125,0.6210938,0.2026367
3563,1.125,-63.875,-14.5,-0.3032227,-0.9614258,-0.03857422,-0.078125,0.6210938,0.2026367
3566,0.75,-64.25,-15.0625,-0.2719727,-0.8798828,-0.015625,-0.06982422,0.6152344,0.2138672
3569,0.3125,-63.75,-15.375,-0.2797852,-0.8408203,-0.004394531,-0.06982422,0.6098633,0.2250977
3572,0.375,-62.625,-15.375,-0.2602539,-0.8095703,-0.0004882813,-0.06982422,0.6098633,0.2250977
3575,-0.0625,-62.9375,-15.5625,-0.2563477,-0.7783203,0.02246094,-0.06982422,0.612793,0.2055664
3578,0.1875,-62.4375,-15.75,-0.2290039,-0.7392578,0.006835938,-0.06982422,0.612793,0.2055664
3581,0.75,-60.3125,-16,-0.2138672,-0.7275391,0.01855469,-0.06982422,0.6152344,0.2109375
3584,0.5,-58.5,-15.5625,-0.1943359,-0.6884766,0.06054688,-0.06396484,0.6152344,0.2167969
3587,-0.5,-57.3125,-15.375,-0.1943359,-0.6845703,0.05322266,-0.06396484,0.6152344,0.2167969
3590,-2.5,-55.75,-15,-0.1513672,-0.6533203,0.07226563,-0.06396484,0.6069336,0.230957
3593,-4.6875,-53.6875,-14.4375,-0.1591797,-0.6611328,0.03369141,-0.06396484,0.6069336,0.230957
3596,-7.1875,-51.6875,-13.75,-0.1708984,-0.6494141,0.07226563,-0.05810547,0.6069336,0.2280273
3599,-9,-50.4375,-14.0625,-0.1865234,-0.6494141,0.09521484,-0.05810547,0.6069336,0.2280273
3602,-11,-49.0625,-14.625,-0.2021484,-0.6064453,0.05322266,-0.06103516,0.6069336,0.2280273
3605,-12.75,-47.1875,-15.0625,-0.1630859,-0.6572266,0.09521484,-0.05517578,0.6098633,0.2368164
3608,-14.75,-46,-15.8125,-0.1669922,-0.6533203,0.09521484,-0.05517578,0.6098633,0.2368164
3611,-16.4375,-44.9375,-17.4375,-0.1708984,-0.6611328,0.1030273,-0.06103516,0.6098633,0.2451172
3614,-18.75,-43.75,-19,-0.1826172,-0.7041016,0.08007813,-0.06103516,0.6098633,0.2451172
3617,-20.4375,-41.9375,-21.25,-0.1787109,-0.7119141,0.09521484,-0.05810547,0.6015625,0.2421875
3620,-23.8125,-36.875,-24.0625,-0.2407227,-0.7666016,0.06445313,-0.06103516,0.6044922,0.2480469
3623,-21.4375,-36.3125,-23.875,-0.1943359,-0.7392578,0.03369141,-0.06103516,0.6044922,0.2480469
3626,-20,-32.75,-25.0625,-0.2099609,-0.7900391,0.04931641,-0.05517578,0.5986328,0.2509766
3629,-17.9375,-30.1875,-26,-0.2138672,-0.8017578,0.06445313,-0.05517578,0.5986328,0.2509766
3632,-15.5,-29.8125,-25.625,-0.2368164,-0.8251953,0.04931641,-0.05517578,0.6015625,0.2480469
3635,-13,-28.6875,-25.625,-0.2138672,-0.8408203,0.02246094,-0.05517578,0.5878906,0.2680664
3638,-10.8125,-27.125,-24.6875,-0.2563477,-0.8095703,0.08740234,-0.05517578,0.5878906,0.2680664
3641,-6.625,-26.875,-23.625,-0.2758789,-0.8486328,0.03369141,-0.04980469,0.5878906,0.262207
3644,-2.6875,-25.125,-22.875,-0.2641602,-0.8837891,0.06054688,-0.04980469,0.5878906,0.262207
3647,0.375,-22.5625,-21.375,-0.2524414,-0.8720703,0.04931641,-0.05810547,0.5849609,0.2563477
3650,2.125,-20.9375,-20.625,-0.2368164,-0.8681641,0.06054688,-0.05810547,0.5849609,0.2563477
3653,3.3125,-19.125,-19.75,-0.2329102,-0.8798828,0.05664063,-0.05273438,0.590332,0.2592773
3656,3.125,-17.5625,-19.0625,-0.1982422,-0.9111328,0.08007813,-0.05273438,0.5986328,0.2734375
3659,2.25,-15.75,-18.375,-0.1982422,-0.8955078,0.05664063,-0.05273438,0.5986328,0.2734375
3662,0.8125,-13.9375,-17.5,-0.1826172,-0.9072266,0.06054688,-0.06396484,0.5849609,0.2680664
3665,-0.4375,-11.625,-17.375,-0.1396484,-0.949707,0.07226563,-0.06396484,0.5849609,0.2680664
3668,-1.5625,-9.4375,-17.1875,-0.1552734,-0.9770508,0.06835938,-0.06396484,0.5849609,0.2680664
3671,-3.25,-5.8125,-17.125,-0.1552734,-1.008301,0.06445313,-0.05517578,0.5849609,0.2563477
3674,-5,-2,-16.8125,-0.1591797,-1.023926,0.07226563,-0.05517578,0.5849609,0.2563477
3677,-5.8125,0.9375,-15.8125,-0.1474609,-1.027832,0.04150391,-0.06103516,0.5878906,0.2651367
3680,-5.3125,4.5625,-15.5625,-0.1708984,-1.074707,0.02587891,-0.06103516,0.5878906,0.2651367
3683,-3.0625,7.5625,-15.1875,-0.1826172,-1.121582,0.03759766,-0.05273438,0.590332,0.2680664
3686,-2.8125,9.6875,-14.6875,-0.1943359,-1.086426,0.08740234,-0.05273438,0.590332,0.2680664
3689,-5.875,13,-14.3125,-0.2138672,-1.148926,0.1489258,-0.05517578,0.5737305,0.2763672
3692,0,12.9375,-14.0625,-0.2407227,-1.156738,0.1069336,-0.06689453,0.5795898,0.2709961
3695,0.1875,13.4375,-13.625,-0.2563477,-1.129395,0.1606445,-0.06689453,0.5795898,0.2709961
3698,-2.375,11.9375,-13.25,-0.2641602,-1.129395,0.222168,-0.06689453,0.5795898,0.2709961
3701,-2.875,12.1875,-14.3125,-0.2485352,-1.160645,0.1108398,-0.06689453,0.5795898,0.2709961
3704,-2.5,17.8125,-11.375,-0.2407227,-1.148926,0.02978516,-0.05810547,0.5878906,0.262207
3707,4.625,21.875,-9.75,-0.1552734,-1.17627,-0.01953125,-0.06103516,0.5795898,0.2563477
3710,7.4375,23.125,-8.3125,-0.1162109,-1.215332,0.002929688,-0.06103516,0.5795898,0.2563477
3713,3.625,22.5,-8.375,-0.1357422,-1.328125,0.02246094,-0.06396484,0.5737305,0.262207
3716,-3.6875,22.8125,-8.25,-0.1552734,-1.261719,-0.09667969,-0.06396484,0.5737305,0.262207
3719,-1.125,23.6875,-6.4375,-0.1318359,-1.261719,-0.1889648,-0.06103516,0.5737305,0.2651367
3722,9.0625,26.1875,-5.5,-0.09277344,-1.20752,-0.2270508,-0.06103516,0.5737305,0.2651367
3725,12.875,27.8125,-6.25,-0.1044922,-1.261719,-0.2158203,-0.05810547,0.5878906,0.2563477
3728,13.5,31.625,-5.625,-0.09277344,-1.223145,-0.1811523,-0.05810547,0.5878906,0.2563477
3731,12.625,35.5,-4.1875,-0.1162109,-1.187988,-0.2080078,-0.05810547,0.5878906,0.2563477
3734,9.4375,35.5625,-3.125,-0.05371094,-1.105957,-0.1503906,-0.08105469,0.5795898,0.2509766
3737,5.1875,37.375,-0.4375,-0.06542969,-1.023926,-0.1923828,-0.08105469,0.5795898,0.2509766
3740,3.9375,41.25,3.375,-0.03417969,-0.9418945,-0.1733398,-0.07226563,0.5849609,0.2451172
3743,5.5,41.6875,7.875,0.01611328,-0.918457,-0.1962891,-0.078125,0.5766602,0.2368164
3746,6.9375,38.5625,9.5,0.02392578,-0.9072266,-0.1733398,-0.078125,0.5766602,0.2368164
3749,6.5,36.5,10.9375,0.09765625,-0.8876953,-0.1923828,-0.08105469,0.5932617,0.2421875
3752,4.875,35.125,11.3125,0.140625,-0.8876953,-0.1811523,-0.08105469,0.5932617,0.2421875
3755,4.1875,35.25,11.6875,0.15625,-0.9150391,-0.2080078,-0.06689453,0.5878906,0.2338867
3758,2.4375,37.25,11.0625,0.2226563,-0.9262695,-0.2001953,-0.06689453,0.5878906,0.2338867
3761,0.6875,38.625,9.3125,0.2109375,-0.9731445,-0.2270508,-0.06689453,0.5878906,0.2338867
3764,-2.8125,40.5,7.9375,0.1679688,-0.9926758,-0.265625,-0.06689453,0.5795898,0.2368164
3767,-5.6875,42.375,5.8125,0.140625,-1.008301,-0.246582,-0.06689453,0.5795898,0.2368164
3770,-8.3125,44.625,3.75,0.1289063,-1.039551,-0.2197266,-0.08105469,0.5961914,0.2226563
3773,-10.8125,47.25,2.75,0.06689453,-1.043457,-0.2001953,-0.08105469,0.5961914,0.2226563
3776,-11.375,49.75,2.5,-0.006835938,-1.086426,-0.1694336,-0.078125,0.5878906,0.230957
3779,-11.5625,50.9375,2.75,-0.03417969,-1.109863,-0.1733398,-0.07519531,0.5961914,0.2280273
3782,-11.625,51.3125,3.375,-0.08496094,-1.105957,-0.1386719,-0.07519531,0.5961914,0.2280273
3785,-11.125,52.3125,5.125,-0.1162109,-1.098145,-0.1386719,-0.09228516,0.5961914,0.2250977
3788,-8.75,50.6875,6.5625,-0.1591797,-1.102051,-0.1542969,-0.09228516,0.5961914,0.2250977
3791,-6.8125,48.9375,7.375,-0.2060547,-1.086426,-0.1196289,-0.09228516,0.5961914,0.2250977
3794,-5.1875,45.8125,8.625,-0.1826172,-1.039551,-0.1235352,-0.08398438,0.5820313,0.2080078
3797,-3.75,42.75,10.1875,-0.2099609,-0.9614258,-0.07324219,-0.08398438,0.5820313,0.2080078
3800,-3,39.8125,11.625,-0.1748047,-0.934082,-0.05419922,-0.09521484,0.5795898,0.2197266
3803,-2.8125,37.3125,13.6875,-0.1748047,-0.8603516,-0.04248047,-0.09521484,0.5795898,0.2197266
3806,-1.875,35.9375,15.75,-0.1435547,-0.8251953,-0.07324219,-0.08935547,0.5820313,0.2055664
3809,-0.75,34.6875,17.125,-0.1240234,-0.7744141,-0.0078125,-0.08935547,0.5820313,0.2055664
3812,0.0625,33.5,18.25,-0.1044922,-0.7587891,-0.015625,-0.08105469,0.590332,0.2080078
3815,0,33.1875,18.875,-0.04980469,-0.7197266,-0.004394531,-0.08398438,0.5878906,0.2055664
3818,-0.1875,33.125,18.625,-0.03417969,-0.7158203,-0.05029297,-0.08398438,0.5878906,0.2055664
3821,0.375,33.625,18.75,-0.002929688,-0.7001953,-0.08105469,-0.078125,0.5878906,0.2026367
3824,0.25,34.5625,18.1875,0.0004882813,-0.7158203,-0.06933594,-0.078125,0.5878906,0.2026367
3827,0,36.1875,17.25,0.004394531,-0.7041016,-0.07324219,-0.08691406,0.5961914,0.199707
3830,-0.9375,38.25,16.625,0.04345703,-0.7314453,-0.08105469,-0.078125,0.5986328,0.2055664
3833,-1.625,39.25,14.875,0.04345703,-0.7470703,-0.08496094,-0.078125,0.5986328,0.2055664
3836,-2.5625,40.5625,13.625,0.03564453,-0.7705078,-0.06933594,-0.08105469,0.5961914,0.199707
3839,-3.8125,41.8125,12.5625,0.06689453,-0.7822266,-0.06933594,-0.08105469,0.5961914,0.199707
3842,-3.125,42.375,10.9375,0.01611328,-0.8173828,-0.09277344,-0.06689453,0.5986328,0.2026367
3845,-1.9375,42.625,9.75,0.04736328,-0.8017578,-0.05419922,-0.06689453,0.5986328,0.2026367
3848,-1.1875,42.5,8.6875,0.02001953,-0.8095703,-0.06201172,-0.08398438,0.6044922,0.1826172
3851,-0.9375,43.125,8.3125,-0.01074219,-0.8173828,-0.02734375,-0.09228516,0.6069336,0.1884766
3854,-0.8125,42.375,7.375,-0.01464844,-0.8798828,-0.04638672,-0.09228516,0.6069336,0.1884766
3857,-0.6875,42.4375,6.5625,0.0004882813,-0.8994141,-0.01171875,-0.08691406,0.590332,0.1884766
3860,-0.4375,42.75,6.25,0.0004882813,-0.9111328,-0.04248047,-0.08691406,0.590332,0.1884766
3863,-0.5,43.375,6.4375,-0.002929688,-0.918457,-0.01171875,-0.08691406,0.6015625,0.1967773
3866,-0.9375,43.375,7.25,-0.01074219,-0.8955078,-0.04638672,-0.08691406,0.5961914,0.1938477
3869,-1.1875,43.5,8.8125,0.01220703,-0.9223633,-0.015625,-0.08691406,0.5961914,0.1938477
3872,-0.8125,43.375,11,0.0004882813,-0.9033203,-0.0234375,-0.09228516,0.5986328,0.1743164
3875,0.5,41.375,12.125,0.0004882813,-0.9111328,-0.02734375,-0.09228516,0.5986328,0.1743164
3878,2.375,39.9375,13.375,-0.03027344,-0.8955078,-0.0234375,-0.078125,0.5878906,0.1796875
3881,4.3125,39,15.25,0.004394531,-0.8994141,-0.004394531,-0.078125,0.5878906,0.1796875
3884,5.5,37.8125,16.4375,-0.04199219,-0.9223633,0.006835938,-0.078125,0.5961914,0.1767578
3887,6.625,35.875,17.375,-0.03027344,-0.9262695,0.002929688,-0.08935547,0.6069336,0.1855469
3890,7.9375,35.375,18.4375,0.004394531,-0.9150391,0.006835938,-0.08935547,0.6069336,0.1855469
3893,7.9375,34.6875,18.9375,0.01611328,-0.8798828,0.03759766,-0.09228516,0.5961914,0.168457
3896,7.625,33.8125,19.5625,-0.006835938,-0.8994141,0.02246094,-0.09228516,0.5961914,0.168457
3899,7.5,34.125,20.4375,0.02001953,-0.8994141,0.04150391,-0.08105469,0.6069336,0.1743164
3902,7.125,35,22,0.03564453,-0.8994141,0.02587891,-0.08398438,0.6069336,0.1767578
3905,7.0625,36.0625,23.9375,0.02783203,-0.8837891,0.01464844,-0.08398438,0.6069336,0.1767578
3908,7.375,36.875,25.75,0.04736328,-0.8994141,-0.0004882813,-0.09228516,0.612793,0.159668
3911,8,37.75,28,0.02392578,-0.9033203,-0.015625,-0.09228516,0.612793,0.159668
3914,8.25,37.9375,29.1875,0.0004882813,-0.8837891,-0.004394531,-0.06982422,0.5986328,0.1625977
3917,8.5625,37.875,30.25,0.03564453,-0.9033203,0.01074219,-0.06982422,0.612793,0.1572266
3920,8.375,39.0625,31.875,-0.01074219,-0.9223633,0.002929688,-0.06982422,0.612793,0.1572266
3923,7.375,40.3125,33.5625,-0.006835938,-0.918457,-0.0078125,-0.078125,0.612793,0.1513672
3926,6.3125,40.6875,34.875,-0.01855469,-0.9072266,-0.01953125,-0.078125,0.612793,0.1513672
3929,5.625,41.1875,36.4375,-0.02246094,-0.8994141,-0.0234375,-0.06982422,0.612793,0.1542969
3932,4.625,41.875,38.25,-0.06152344,-0.8759766,-0.0234375,-0.06982422,0.612793,0.1542969
3935,3.9375,41.9375,39.625,-0.04199219,-0.8955078,-0.0004882813,-0.06396484,0.6098633,0.1625977
3938,2.8125,40.8125,41.25,-0.08105469,-0.8837891,-0.0004882813,-0.07519531,0.6152344,0.1484375
3941,2.3125,39.75,43,-0.07324219,-0.8955078,0.01855469,-0.07519531,0.6152344,0.1484375
3944,1.3125,38.3125,45.5625,-0.1201172,-0.9072266,0.01855469,-0.04980469,0.612793,0.1513672
3947,0.125,35.75,47.625,-0.1513672,-0.9262695,0.04150391,-0.04980469,0.612793,0.1513672
3950,-2.4375,33.25,47.9375,-0.1396484,-0.9614258,0.09130859,-0.06396484,0.6293945,0.1542969
3953,-0.25,28.875,52.3125,-0.2099609,-0.9458008,-0.0004882813,-0.05810547,0.6235352,0.1455078
3956,0.875,23.6875,51.9375,-0.2446289,-0.9692383,0.03759766,-0.05810547,0.6235352,0.1455078
3959,1.9375,17.875,50.1875,-0.2641602,-1.016113,0.01464844,-0.03808594,0.6318359,0.1455078
3962,2.25,13.75,49.0625,-0.2446289,-1.062988,0.01074219,-0.03808594,0.6318359,0.1455078
3965,2,12.0625,47.625,-0.2250977,-1.125488,-0.0078125,-0.04101563,0.6235352,0.1513672
3968,-1.5,8.8125,44.9375,-0.2524414,-1.17627,-0.08496094,-0.04101563,0.6235352,0.1513672
3971,-6.5625,6.625,42.9375,-0.2329102,-1.23877,-0.1694336,-0.02099609,0.6235352,0.1484375
3974,-11.625,10.0625,39.4375,-0.1982422,-1.230957,-0.1425781,-0.02685547,0.6430664,0.1342773
3977,-9.375,14.25,41.5,-0.2138672,-1.328125,-0.3540039,-0.02685547,0.6430664,0.1342773
3980,-11.6875,18.5625,41.0625,-0.2485352,-1.351563,-0.3808594,-0.02685547,0.6430664,0.1342773
3983,-6.4375,25.3125,41,-0.2563477,-1.335938,-0.4272461,-0.02685547,0.6430664,0.1342773
3986,1.875,28.25,39,-0.3032227,-1.269531,-0.4116211,-0.01806641,0.6318359,0.1401367
3989,4,28.875,35.3125,-0.3422852,-1.211426,-0.3193359,-0.01806641,0.6459961,0.1484375
3992,0.8125,30.875,32.375,-0.3657227,-1.086426,-0.2773438,-0.01806641,0.6459961,0.1484375
3995,-0.9375,32.875,31.125,-0.3618164,-1.043457,-0.1733398,-0.009765625,0.6235352,0.1484375
3998,-7,37.0625,29,-0.3891602,-0.9770508,-0.1655273,-0.009765625,0.6235352,0.1484375
4001,-3,39.9375,33.0625,-0.3500977,-0.8486328,-0.1616211,-0.015625,0.6430664,0.1484375
4004,-4,43.4375,33,-0.3540039,-0.7978516,-0.1542969,-0.015625,0.6430664,0.1484375
4007,-0.1875,46.375,31.0625,-0.4008789,-0.7900391,-0.1889648,-0.015625,0.6347656,0.1572266
4010,0.5625,49.75,30.375,-0.3930664,-0.7392578,-0.1923828,-0.015625,0.6347656,0.1572266
4013,0.6875,52.8125,29.125,-0.3852539,-0.7705078,-0.1772461,-0.015625,0.6347656,0.1572266
4016,0.6875,56.5625,28.875,-0.3383789,-0.7978516,-0.1582031,-0.00390625,0.6489258,0.137207
4019,0.25,59,28.4375,-0.2915039,-0.8681641,-0.1850586,-0.00390625,0.6489258,0.137207
4022,-1.1875,59.4375,28.4375,-0.3110352,-0.918457,-0.1889648,-0.01269531,0.6489258,0.1455078
4025,-3.3125,59.3125,28.4375,-0.2954102,-0.9614258,-0.2270508,-0.01269531,0.6430664,0.137207
4028,-5.5,60.125,28.6875,-0.2719727,-1.027832,-0.2119141,-0.01269531,0.6430664,0.137207
4031,-6.875,61.3125,29.1875,-0.2797852,-1.070801,-0.2387695,-0.006835938,0.6489258,0.137207
4034,-7.1875,62.375,28.3125,-0.2836914,-1.098145,-0.2426758,-0.006835938,0.6489258,0.137207
4037,-6.5,64.125,27.125,-0.3110352,-1.109863,-0.246582,-0.006835938,0.6513672,0.1430664
4040,-4.75,66.625,25.5625,-0.3461914,-1.090332,-0.2578125,-0.006835938,0.6513672,0.1430664
4043,-1.8125,68.25,23.4375,-0.3461914,-1.105957,-0.265625,-0.006835938,0.6513672,0.1430664
4046,0.75,69.8125,21.8125,-0.3149414,-1.047363,-0.2426758,0.001464844,0.6513672,0.137207
4049,2.9375,71.5625,20.9375,-0.3227539,-1.004395,-0.1811523,0.001464844,0.6513672,0.137207
4052,4.4375,72.75,20.25,-0.3149414,-0.934082,-0.1889648,0.001464844,0.6459961,0.128418
4055,6.875,73.6875,19.4375,-0.3032227,-0.8837891,-0.1616211,0.001464844,0.6459961,0.128418
4058,9.3125,75,18.9375,-0.2836914,-0.8408203,-0.1655273,-0.009765625,0.6430664,0.1259766
4061,11.6875,76.125,17.4375,-0.2954102,-0.7900391,-0.1694336,0.001464844,0.6513672,0.1230469
4064,13.4375,76.8125,16.625,-0.2797852,-0.7666016,-0.1582031,0.001464844,0.6513672,0.1230469
4067,8.625,81.75,15.5,-0.2719727,-0.7314453,-0.1542969,-0.0009765625,0.6513672,0.1171875
4070,17.375,79.125,14.6875,-0.2602539,-0.7001953,-0.1772461,-0.0009765625,0.6513672,0.1171875
4073,18.4375,78.5,13.4375,-0.2368164,-0.6962891,-0.1616211,-0.0009765625,0.6513672,0.1171875
4076,17.875,79.6875,13.6875,-0.2172852,-0.6767578,-0.1889648,-0.00390625,0.6513672,0.09716797
4079,18.5,80.75,14.4375,-0.2407227,-0.7041016,-0.2001953,-0.00390625,0.6513672,0.09716797
4082,18.5,82.3125,14.75,-0.2719727,-0.7080078,-0.2041016,-0.009765625,0.6542969,0.1142578
4085,17.875,82.6875,14.375,-0.2680664,-0.7431641,-0.1962891,-0.009765625,0.6542969,0.1142578
4088,17,84.3125,14.1875,-0.3110352,-0.7548828,-0.1889648,-0.009765625,0.6430664,0.1142578
4091,16.0625,85.75,14.3125,-0.2915039,-0.8134766,-0.1616211,-0.009765625,0.6430664,0.1142578
4094,15.625,86.5,14.0625,-0.3540039,-0.8134766,-0.1503906,0.001464844,0.659668,0.1030273
4097,14.25,86.5625,13.75,-0.3500977,-0.8720703,-0.1582031,-0.009765625,0.6572266,0.09179688
4100,12.875,86.8125,13.25,-0.3422852,-0.8798828,-0.1503906,-0.009765625,0.6572266,0.09179688
4103,11.375,87.4375,13.375,-0.3579102,-0.918457,-0.1464844,-0.009765625,0.6572266,0.09179688
4106,11.1875,87.75,12.875,-0.3540039,-0.9301758,-0.1616211,-0.009765625,0.6572266,0.09179688
4109,12.1875,88.8125,12.9375,-0.3696289,-0.9111328,-0.1582031,-0.009765625,0.6489258,0.08886719
4112,13.5,89.3125,12.4375,-0.3618164,-0.9379883,-0.1811523,-0.00390625,0.6489258,0.07177734
4115,14.25,88.9375,11.5,-0.3540039,-0.9072266,-0.2080078,-0.00390625,0.6489258,0.07177734
4118,14.75,89.5,10.75,-0.3305664,-0.918457,-0.1923828,-0.009765625,0.6572266,0.06298828
4121,14.875,88.75,10.375,-0.3344727,-0.8994141,-0.1616211,-0.009765625,0.6572266,0.06298828
4124,15,87.9375,10.3125,-0.2954102,-0.8955078,-0.1655273,-0.01269531,0.659668,0.06591797
4127,15.375,87.6875,10.125,-0.3227539,-0.8720703,-0.1772461,-0.01269531,0.659668,0.06591797
4130,15.5,88.375,9.375,-0.3266602,-0.8876953,-0.1694336,-0.009765625,0.6542969,0.06054688
